emg,grf,knee,ankle
29.16772845,-6.471900629,2.501035,6.430772
28.98638772,-6.982988685,2.63981,6.392871
28.9869862,-7.538939986,2.776783,6.351114
28.94688776,-8.143232566,2.911895,6.305544
28.56864571,-8.799344459,3.04509,6.256202
28.53513059,-9.510753699,3.17632,6.203145
28.50041851,-10.28093832,3.305558,6.146447
28.41423677,-11.11337636,3.432783,6.086189
28.36875197,-12.01151057,3.55797,6.02245
28.36575955,-12.97737462,3.68111,5.955326
28.28436569,-14.01114961,3.802212,5.884929
28.0180402,-15.11289058,3.921281,5.811374
28.00068416,-16.28255556,4.038327,5.734777
28.00128264,-17.51861104,4.153375,5.655271
28.0102599,-18.81835443,4.266459,5.572998
28.07310075,-20.17905186,4.377612,5.488102
28.08327498,-21.59782707,4.486872,5.400733
28.09704012,-23.07072017,4.594287,5.31105
28.05873713,-24.59327298,4.699914,5.219223
27.86183581,-26.1610247,4.803808,5.125418
27.89594941,-27.76945258,4.906023,5.029808
27.90851758,-29.41377737,5.006628,4.932574
27.89056305,-31.08915347,5.105691,4.833902
28.00487355,-32.79073615,5.203279,4.733976
28.33583534,-34.513903,5.299462,4.632983
28.45373673,-36.25454708,5.394314,4.531113
28.48785034,-38.00863434,5.487909,4.428559
28.49144124,-39.7721426,5.580321,4.325512
28.4435625,-41.54155838,5.671622,4.222163
28.21793394,-43.31405748,5.761885,4.118703
27.88338124,-45.0868647,5.851184,4.015321
27.87919185,-46.85724025,5.939588,3.912209
27.94801754,-48.62301409,6.027169,3.809549
27.94322967,-50.3824763,6.113988,3.707523
27.73376018,-52.13393013,6.200113,3.606311
27.46025288,-53.87570257,6.285605,3.506093
27.10535172,-55.60630821,6.370521,3.407035
26.59185223,-57.32435068,6.454912,3.309301
26.43804178,-59.02843416,6.538831,3.213056
25.517573,-60.71714874,6.622325,3.118457
25.04177802,-62.3890242,6.705435,3.025648
23.92979428,-64.04257418,6.788195,2.93477
23.60062794,-65.67631191,6.870642,2.845964
23.57070373,-67.28862663,6.952804,2.759362
23.35764334,-68.87761071,7.0347,2.675078
23.31156005,-70.44131299,7.11635,2.593226
23.12483297,-71.97778477,7.197771,2.513921
23.02309064,-73.48518999,7.27897,2.437261
22.97999978,-74.96184989,7.359948,2.363332
22.91416651,-76.40609738,7.440704,2.292218
22.43777305,-77.8162907,7.521236,2.224005
21.7746525,-79.19121528,7.601534,2.158755
21.05347897,-80.530012,7.681577,2.096525
20.482525,-81.83183259,7.761351,2.03737
20.47713864,-83.09589098,7.840832,1.981341
20.34068423,-84.32191123,7.919994,1.928471
20.27544945,-85.50986732,7.998803,1.878785
20.18029045,-86.65973491,8.077226,1.832312
19.9426922,-87.77160897,8.155228,1.789071
19.56744258,-88.84611328,8.232764,1.749064
19.34480644,-89.88401806,8.309793,1.712293
19.33044282,-90.88609378,8.386269,1.678757
19.18022327,-91.85318703,8.462145,1.648448
18.72657221,-92.78633279,8.537367,1.621344
18.54223906,-93.68659463,8.611886,1.597421
18.51351181,-94.55503651,8.685648,1.576658
18.50393607,-95.3927412,8.758599,1.559019
18.50633,-96.20081855,8.830684,1.544464
18.50513303,-96.98038049,8.901845,1.53295
18.50154213,-97.73253756,8.972029,1.524435
18.49615577,-98.45837532,9.041178,1.518864
18.47580731,-99.15895796,9.109235,1.516183
18.47640579,-99.83534895,9.176146,1.516333
18.36089833,-100.488597,9.241853,1.519257
17.83123977,-101.1196245,9.306303,1.524889
17.57748244,-101.7292905,9.369443,1.53316
16.47986233,-102.3184531,9.431223,1.544003
15.59889351,-102.8879189,9.491589,1.557347
15.50014361,-103.4382561,9.550494,1.57312
14.99322745,-103.969965,9.607891,1.591246
14.31035692,-104.4835456,9.663733,1.611651
14.25888727,-104.9794688,9.717977,1.63426
14.23195548,-105.4581311,9.770582,1.658995
14.16013737,-105.9199171,9.82151,1.685777
13.90039521,-106.3652099,9.870725,1.714529
13.73162265,-106.794304,9.91819,1.745173
13.69571359,-107.2073628,9.963876,1.777632
13.48923653,-107.604539,10.007755,1.811828
13.30191096,-107.9859827,10.049797,1.847684
13.24206253,-108.351795,10.08998,1.885124
13.22769891,-108.7020338,10.128287,1.924072
13.20974438,-109.0367556,10.164696,1.964452
13.17802472,-109.3560108,10.199191,2.006191
13.16904745,-109.6597989,10.231759,2.049216
13.16485806,-109.9480924,10.262396,2.093456
13.1636611,-110.2208637,10.291088,2.138841
13.10500964,-110.4780843,10.317833,2.185301
13.04815364,-110.7197219,10.342628,2.23277
11.77398067,-110.9457429,10.365479,2.281184
11.59383691,-111.1561139,10.386382,2.330478
11.58067025,-111.3507845,10.405346,2.380589
11.54176878,-111.5296608,10.42238,2.431458
11.30357204,-111.6926414,10.437497,2.483028
10.93550423,-111.8396252,10.450706,2.535238
10.57162581,-111.9705162,10.462025,2.588036
10.20535344,-112.0852262,10.47147,2.641369
10.09702779,-112.183668,10.479063,2.695186
10.09523234,-112.2657542,10.484822,2.749436
10.09583083,-112.3314041,10.488774,2.804074
10.09523234,-112.3805425,10.490944,2.859054
10.07069449,-112.4130943,10.49136,2.914332
10.06171722,-112.4289863,10.490048,2.969864
10.04675512,-112.4281595,10.487042,3.025614
10.01443697,-112.4105629,10.482374,3.081542
9.984512756,-112.3761454,10.476078,3.137612
9.975535492,-112.3248652,10.468184,3.193789
9.849255315,-112.2567245,10.458735,3.250041
9.797187185,-112.1717393,10.447763,3.306336
9.782225079,-112.0699255,10.435309,3.362645
9.627217658,-111.9513341,10.421412,3.418939
9.427323918,-111.8161116,10.406109,3.475194
9.411164843,-111.6644207,10.389443,3.531383
9.451861772,-111.4964243,10.371454,3.587482
9.473407205,-111.3123026,10.352185,3.64347
9.468020847,-111.1122635,10.331677,3.699327
9.464429942,-110.896517,10.309975,3.755034
9.446475414,-110.6652756,10.287117,3.810572
9.410566359,-110.4188022,10.26315,3.865924
9.301043741,-110.157407,10.238115,3.921076
9.084990927,-109.8814018,10.212054,3.976013
9.035915218,-109.5911086,10.18501,4.03072
8.955119844,-109.2869446,10.157025,4.085186
8.846794195,-108.9693802,10.128142,4.1394
8.811483624,-108.6388862,10.098402,4.19335
8.698968585,-108.2959287,10.067846,4.247027
8.652286813,-107.9409499,10.036513,4.300424
8.390150711,-107.5743846,10.004444,4.353531
7.346992662,-107.1966673,9.971678,4.406343
5.857365362,-106.8082295,9.938254,4.458851
5.18825997,-106.4094932,9.904207,4.511051
4.988964714,-106.0008789,9.869576,4.562938
4.806427018,-105.582807,9.834393,4.614506
4.804033081,-105.1557,9.798696,4.665751
4.593366625,-104.7199834,9.762516,4.71667
4.540700011,-104.2760829,9.725886,4.767259
4.473669774,-103.8244241,9.688839,4.817517
4.016427807,-103.3654293,9.651402,4.86744
3.982314205,-102.8995172,9.613605,4.917026
3.901518831,-102.4271065,9.575475,4.966273
3.711799323,-101.9486068,9.53704,5.015181
3.726162945,-101.464337,9.498322,5.063747
3.724965977,-100.9745642,9.459348,5.111974
3.651950898,-100.4795547,9.420138,5.159857
3.388019344,-99.97957541,9.380718,5.207398
3.362883005,-99.47489457,9.341105,5.254597
3.287473989,-98.96578109,9.301319,5.301454
3.265928556,-98.45250385,9.261377,5.34797
3.243186155,-97.93532433,9.221297,5.394144
3.234807375,-97.41448242,9.181094,5.439976
3.231814954,-96.89021413,9.140783,5.48547
3.225830112,-96.36275482,9.100379,5.530625
3.224633143,-95.83229287,9.059893,5.575443
3.243186155,-95.29893791,9.019337,5.619925
3.247375545,-94.76279203,8.978721,5.664074
3.248572513,-94.22395822,8.938056,5.70789
3.261140682,-93.6825599,8.89735,5.751377
3.265928556,-93.13874076,8.856613,5.794536
3.258746745,-92.59264537,8.81585,5.83737
3.225830112,-92.04441624,8.775072,5.87988
3.213261942,-91.49417466,8.73428,5.922072
3.185133183,-90.9420294,8.69348,5.963946
3.192913478,-90.38808903,8.65268,6.005505
3.204284679,-89.83245326,8.611881,6.046754
3.185731667,-89.27517327,8.571088,6.087696
3.182140761,-88.71628378,8.530304,6.128335
3.182739246,-88.1558195,8.489531,6.168673
3.225830112,-87.5937918,8.448771,6.208717
3.352708773,-87.03014177,8.408028,6.24847
3.390413281,-86.46479726,8.3673,6.287936
3.401784481,-85.89768642,8.326592,6.32712
3.453852611,-85.32875898,8.285905,6.366026
3.47479956,-84.75800205,8.245237,6.404661
3.456246548,-84.1854064,8.20459,6.443028
3.468814717,-83.61096172,8.163965,6.481133
3.47061017,-83.03463062,8.123362,6.518982
3.460435938,-82.45634796,8.08278,6.556581
3.439488989,-81.87604737,8.042223,6.593935
3.404776903,-81.29366192,8.001687,6.631052
3.388019344,-80.70911917,7.961175,6.667935
3.382034501,-80.12234325,7.920687,6.704593
3.382632985,-79.53325827,7.880222,6.741032
3.38323147,-78.94179937,7.839782,6.777259
3.381436017,-78.34796399,7.799367,6.813281
3.37485269,-77.75177145,7.758977,6.849105
3.371261785,-77.15324106,7.718615,6.884738
3.3706633,-76.55236918,7.678279,6.920188
3.348519383,-75.94908065,7.637972,6.955462
3.335951214,-75.34328638,7.597697,6.990569
3.32697395,-74.73489791,7.557453,7.025516
3.306027001,-74.12388153,7.517243,7.06031
3.285080052,-73.51030112,7.477071,7.094961
3.261140682,-72.89423067,7.436936,7.129478
3.258148261,-72.27574545,7.396843,7.163868
3.264133104,-71.65495324,7.356795,7.198141
3.265330072,-71.03199622,7.316794,7.232305
3.265928556,-70.40701818,7.276845,7.266369
3.265928556,-69.78016272,7.236951,7.300342
3.258148261,-69.15157111,7.197117,7.334234
3.252163419,-68.52138314,7.157347,7.368053
3.244981608,-67.8897386,7.117646,7.401809
3.247375545,-67.25678105,7.078018,7.435511
3.236004344,-66.62267618,7.038468,7.469169
3.205481647,-65.9875977,6.999004,7.502792
3.168375624,-65.35171936,6.959629,7.536391
3.141443832,-64.71522382,6.920351,7.569975
3.143239285,-64.07832257,6.881175,7.603553
3.155807454,-63.44123287,6.842108,7.637136
3.155807454,-62.80417162,6.803155,7.670732
3.158201391,-62.16731614,6.764324,7.70435
3.151618065,-61.53077105,6.725623,7.738001
3.147428675,-60.89463314,6.687057,7.771693
3.153413517,-60.2590007,6.648633,7.805436
3.157602907,-59.62401227,6.61036,7.83924
3.154012002,-58.98985016,6.572244,7.87311
3.150421096,-58.35669889,6.534291,7.90706
3.145034738,-57.72473596,6.496511,7.941093
3.142042317,-57.09405704,6.458909,7.975222
3.137254443,-56.46470478,6.421493,8.009451
3.141443832,-55.83672095,6.38427,8.04379
3.13545899,-55.21015213,6.347246,8.078246
3.123489305,-54.58507411,6.310428,8.112825
3.1312696,-53.96157358,6.273824,8.147536
3.134860506,-53.33973728,6.23744,8.182384
3.029527277,-52.71964455,6.201282,8.217373
2.781754798,-52.10135016,6.165356,8.252509
2.734474542,-51.48490377,6.129669,8.287799
2.582459542,-50.87035479,6.094225,8.323246
2.289202259,-50.2577296,6.059031,8.358854
2.252096236,-49.64701077,6.024091,8.394629
2.252096236,-49.03817598,5.989409,8.430572
2.253293204,-48.43120251,5.954991,8.466685
2.262270468,-47.82605602,5.920842,8.502972
2.267058342,-47.22268915,5.886963,8.539434
2.264664405,-46.62105385,5.853359,8.576074
2.259876531,-46.02110204,5.820033,8.612887
2.279028027,-45.42278541,5.786987,8.649879
2.298179523,-44.82605551,5.754224,8.687048
2.296982554,-44.23086385,5.721745,8.724392
2.294588617,-43.63715578,5.689554,8.76191
2.298179523,-43.04483766,5.657649,8.799601
2.29638407,-42.45380079,5.626032,8.837461
2.293391649,-41.86393645,5.594703,8.875491
2.296982554,-41.27513176,5.563663,8.913685
2.299376491,-40.68725954,5.53291,8.95204
2.28082348,-40.10018955,5.502445,8.990551
2.260475015,-39.51379166,5.472266,9.029217
2.256285625,-38.92795416,5.44237,9.06803
2.271846216,-38.34260131,5.412758,9.106987
2.27663409,-37.75766155,5.383425,9.146083
2.285611354,-37.17306276,5.354372,9.185312
2.285012869,-36.58871599,5.325592,9.224669
2.298179523,-36.00451283,5.297085,9.264149
2.325709798,-35.4203438,5.268847,9.303743
2.35683098,-34.83610355,5.240874,9.343449
2.332293125,-34.25173892,5.213163,9.383258
2.329300704,-33.66723271,5.185709,9.423167
2.349050684,-33.0825684,5.158509,9.463168
2.386755192,-32.49772248,5.131559,9.503257
2.443012712,-31.91262576,5.104854,9.543427
2.44420968,-31.3271908,5.07839,9.583673
2.44420968,-30.74133011,5.052163,9.62399
2.441815743,-30.1549918,5.026167,9.664371
2.439421806,-29.56825101,5.000399,9.704811
2.441815743,-28.98121119,4.974854,9.745308
2.45258846,-28.39397544,4.949528,9.785854
2.451391491,-27.80659586,4.924415,9.826447
2.429846058,-27.21902147,4.899513,9.867083
2.421467279,-26.63118889,4.874815,9.907759
2.418474857,-26.04303766,4.850319,9.94847
2.392740035,-25.45460047,4.826019,9.989214
2.381967318,-24.86602089,4.801913,10.029988
2.383164287,-24.27744898,4.777995,10.070791
2.384361255,-23.68902436,4.754262,10.111621
2.389747613,-23.10074856,4.730712,10.152474
2.398724877,-22.51252516,4.70734,10.193353
2.394535487,-21.92425569,4.684142,10.234254
2.396929424,-21.33586585,4.661117,10.275176
2.417277889,-20.7474443,4.63826,10.316123
2.445406649,-20.15914704,4.615571,10.357091
2.497474778,-19.57113028,4.593044,10.398085
2.47652783,-18.98350618,4.570679,10.439101
2.306558302,-18.39622426,4.548473,10.480144
2.244914425,-17.80919648,4.526425,10.521214
2.213793244,-17.22233518,4.504532,10.56231
2.081528224,-16.63561125,4.482793,10.603437
2.023475252,-16.0491177,4.461207,10.644597
2.00492224,-15.46296276,4.439772,10.68579
1.979187417,-14.87725343,4.418487,10.727019
1.988164681,-14.29205263,4.397352,10.768287
1.985770744,-13.70736933,4.376366,10.809595
1.98517226,-13.12320919,4.355528,10.850947
1.98936165,-12.53958291,4.334838,10.892344
1.988763165,-11.95657062,4.314297,10.933789
1.984573776,-11.37430325,4.293904,10.975286
1.986967713,-10.79291289,4.273661,11.016836
2.010907083,-10.21252685,4.253565,11.058443
2.019285862,-9.633239058,4.23362,11.100105
2.02467222,-9.055129252,4.213824,11.141829
2.016293441,-8.478277094,4.19418,11.183615
2.001929819,-7.902776766,4.174689,11.225463
2.035444937,-7.328777923,4.155351,11.267378
2.111452437,-6.756443472,4.136168,11.309359
2.13299787,-6.185936151,4.117141,11.351409
2.135990291,-5.61738808,4.098272,11.393529
2.137187259,-5.050865498,4.079562,11.435719
2.141376649,-4.486426093,4.061015,11.477982
2.151550881,-3.924127402,4.042631,11.520318
2.14855846,-3.36402147,4.024413,11.562726
2.152149366,-2.806153407,4.006362,11.605209
2.153944819,-2.250567876,3.988482,11.647765
2.155141787,-1.697312157,3.970775,11.690395
2.154543303,-1.146471367,3.953243,11.733101
2.159929661,-0.598159123,3.93589,11.775879
2.167111472,-0.052489736,3.918718,11.818727
2.168906925,0.49043036,3.901731,11.86165
2.190452358,1.030551823,3.88493,11.904644
2.204217496,1.567850473,3.86832,11.947709
2.22875535,2.102302234,3.851903,11.990844
2.229952318,2.633878262,3.835684,12.034047
2.22037657,3.162530834,3.819666,12.077321
2.201225074,3.688207559,3.803852,12.120661
2.202422043,4.210856202,3.788246,12.164068
2.203020527,4.73045592,3.772852,12.20754
2.266459858,5.24705562,3.757675,12.251076
2.326906767,5.7607136,3.742718,12.294676
2.334687062,6.271486553,3.727987,12.338338
2.325111314,6.779368451,3.713485,12.382062
2.332293125,7.284271624,3.699218,12.425849
2.337080999,7.78610293,3.68519,12.469696
2.337679483,8.284777458,3.671407,12.513603
2.338876452,8.780334911,3.657874,12.55757
2.361020369,9.272911696,3.644596,12.601599
2.361618854,9.762646751,3.631579,12.645688
2.358027948,10.24966536,3.61883,12.689838
2.35683098,10.73399017,3.606354,12.734052
2.343664326,11.21559712,3.594158,12.778329
2.34426281,11.69446192,3.582248,12.822671
2.347255231,12.17057171,3.570632,12.867078
2.347853716,12.64396042,3.559317,12.911553
2.347853716,13.11467393,3.54831,12.956098
2.358626432,13.58275821,3.537619,13.000714
2.374187023,14.04827518,3.527253,13.045405
2.392740035,14.51132346,3.517219,13.090176
2.407702141,14.97200677,3.507526,13.135028
2.410096078,15.43042761,3.498183,13.179965
2.401717298,15.88663716,3.489199,13.224991
2.40052033,16.34061778,3.480582,13.27011
2.408300625,16.79234701,3.472344,13.315326
2.440618775,17.2418056,3.464494,13.360643
2.432838479,17.68902538,3.457042,13.406068
2.411293046,18.13407901,3.449998,13.451604
2.413088499,18.57704028,3.443372,13.497254
2.411891531,19.01797629,3.437177,13.54303
2.429247574,19.45690198,3.431421,13.588931
2.461565723,19.89380774,3.426117,13.634966
2.477126314,20.32868384,3.421276,13.681139
2.481315704,20.76153039,3.416909,13.727458
2.483709641,21.19238917,3.413029,13.773926
2.532785349,21.62131296,3.409647,13.820552
2.554330782,22.04835449,3.406775,13.867338
2.562111078,22.47354524,3.404425,13.914294
2.569891373,22.89686637,3.402611,13.961424
2.566898952,23.31829176,3.401343,14.008734
2.554929267,23.73779518,3.400636,14.05623
2.554929267,24.15534651,3.400501,14.103918
2.541762613,24.57091018,3.400953,14.151802
2.547747456,24.98445025,3.402004,14.19989
2.517224759,25.3959317,3.403667,14.248185
2.516626274,25.80533558,3.405957,14.296698
2.547747456,26.21265612,3.408886,14.345427
2.538770192,26.61788795,3.412469,14.394382
2.733876057,27.02103722,3.416719,14.443568
2.951724325,27.42220348,3.421652,14.492989
3.021746982,27.82153155,3.427281,14.542648
3.046883321,28.21916655,3.433621,14.592553
3.047481805,28.61523741,3.440686,14.642707
3.049875742,29.00980212,3.448494,14.69311
3.058254521,29.40289922,3.457057,14.743773
3.052269679,29.7945675,3.466392,14.794696
3.054663616,30.18491796,3.476515,14.845883
3.056459069,30.57423837,3.487441,14.897338
3.064837848,30.96284304,3.499188,14.949063
3.115110525,31.35104531,3.511771,15.001065
3.142640801,31.73911161,3.525207,15.053343
3.170769561,32.12724156,3.539514,15.105899
3.209072553,32.51562969,3.554708,15.158738
3.252761903,32.90447395,3.570807,15.21186
3.262936135,33.29403216,3.58783,15.265265
3.25934523,33.68461297,3.605794,15.318959
3.253958871,34.07652666,3.624717,15.372941
3.324580013,34.47009046,3.644619,15.427211
3.69444328,34.86568021,3.665519,15.48177
3.860821902,35.26370106,3.687435,15.536619
3.836882532,35.66455837,3.710387,15.591759
3.841670406,36.06864904,3.734396,15.647187
3.848253732,36.47633149,3.759482,15.702905
3.857230996,36.88795326,3.785664,15.758912
3.856034028,37.30386196,3.812963,15.815205
3.854837059,37.72443994,3.841402,15.871782
3.860821902,38.15015732,3.871,15.928642
3.912890031,38.58149788,3.90178,15.985785
3.979321783,39.0189444,3.933763,16.043205
3.999071764,39.46292724,3.966971,16.100901
4.007450543,39.91379983,4.001428,16.158867
4.085253496,40.37190945,4.037154,16.217102
4.102609539,40.83760503,4.074173,16.275599
4.108594381,41.31126567,4.11251,16.334356
4.121162551,41.79329685,4.152185,16.39337
4.117571645,42.28410497,4.193223,16.452631
4.108594381,42.78408939,4.235647,16.512136
4.148692826,43.2935884,4.279482,16.57188
4.27317755,43.81290875,4.324752,16.631855
4.395866822,44.34235692,4.371479,16.692051
4.40125318,44.88223795,4.419688,16.752462
4.403647117,45.43285013,4.469404,16.813084
4.404245601,45.99448978,4.520651,16.873903
4.447336467,46.56745318,4.573454,16.934912
4.491624302,47.15202802,4.627836,16.996103
4.491624302,47.74847948,4.683823,17.057467
4.489828849,48.35706915,4.741438,17.118992
4.487434912,48.97805781,4.800707,17.180666
4.490427333,49.61166343,4.861653,17.242481
4.488631881,50.25803915,4.924301,17.304422
4.486836428,50.91733267,4.988675,17.366478
4.488033396,51.58968848,5.054799,17.428633
4.488631881,52.27518884,5.122696,17.490875
4.489230365,52.97385995,5.192392,17.55319
4.485040975,53.68572601,5.263909,17.615566
4.483844007,54.41080498,5.33727,17.677984
4.474866743,55.14905814,5.412498,17.740429
4.466487963,55.90041657,5.489617,17.802883
4.455116763,56.66481109,5.568649,17.86533
4.455116763,57.44214466,5.649614,17.927752
4.453919794,58.23218489,5.732536,17.990128
4.455715247,59.03465835,5.817437,18.052441
4.459904637,59.84929162,5.904335,18.11467
4.464094026,60.67581939,5.993253,18.176788
4.463495542,61.51399831,6.08421,18.238783
4.451525857,62.36358872,6.17723,18.300629
4.443147078,63.22434974,6.272325,18.362293
4.447934952,64.0959691,6.369516,18.423759
4.445541015,64.97802301,6.468823,18.484997
4.445541015,65.87007804,6.570263,18.545984
4.445541015,66.77170172,6.673852,18.606689
4.446139499,67.68248144,6.779608,18.667084
4.434169814,68.60202306,6.887546,18.727139
4.431177393,69.52993311,6.997682,18.786823
4.431177393,70.4658091,7.110031,18.846104
4.431775877,71.40916335,7.224607,18.904949
4.437162235,72.35946134,7.341425,18.96332
4.450927373,73.3161681,7.460499,19.021187
4.466487963,74.27874864,7.581841,19.078508
4.474268259,75.24666811,7.705461,19.135248
4.486237944,76.21939164,7.831375,19.191366
4.523343967,77.19638439,7.959592,19.24682
4.608927215,78.17710345,8.090124,19.301571
4.663389282,79.16098351,8.22298,19.355568
4.663987766,80.14745534,8.358174,19.408773
4.726828613,81.13594954,8.495712,19.461142
4.887820876,82.12588296,8.635604,19.512617
5.129010029,83.11665037,8.777861,19.563156
5.313941663,84.10764454,8.922491,19.612709
5.345661328,85.09825646,9.069503,19.661222
5.337282548,86.08783967,9.218904,19.708641
5.345661328,87.07571182,9.370704,19.754911
5.382168867,88.06118916,9.524909,19.799978
5.416880954,89.04358752,9.681528,19.843781
5.408502174,90.02221887,9.840569,19.886261
5.395934005,90.99639295,10.002039,19.927361
5.400721879,91.96541949,10.165946,19.967014
5.416282469,92.928599,10.332298,20.005161
5.42346428,93.88518402,10.501103,20.041733
5.482714221,94.83441153,10.672367,20.076668
5.48391119,95.77551847,10.846099,20.109896
5.510244497,96.70772975,11.022306,20.141348
5.50785056,97.63023544,11.200993,20.170954
5.512638434,98.54221941,11.382182,20.198645
5.516229339,99.44286562,11.56586,20.224342
5.521615698,100.3313659,11.752058,20.247976
5.521017213,101.2069251,11.940764,20.269472
5.516229339,102.0687492,12.132008,20.288752
5.514433887,102.9160417,12.325776,20.30574
5.515032371,103.7479463,12.522102,20.320358
5.49947178,104.5635484,12.720973,20.332527
5.498873296,105.3619305,12.922421,20.342169
5.398327942,106.1421875,13.126436,20.349201
5.263070501,106.9035374,13.333049,20.35354
5.222972056,107.6452702,13.54225,20.355112
5.208608434,108.3666769,13.754075,20.353825
5.227161446,109.067026,13.968511,20.3496
5.235540226,109.7454654,14.185593,20.342358
5.229555383,110.4011023,14.405311,20.33201
5.227161446,111.033044,14.627703,20.318476
5.222373572,111.6404366,14.852756,20.301672
5.219979635,112.2225417,15.080509,20.281513
5.21638873,112.7786425,15.310953,20.257921
5.195441781,113.3080218,15.544125,20.230806
5.18407058,113.8099342,15.780013,20.200098
5.169706958,114.283586,16.018661,20.165703
5.155343336,114.728179,16.260052,20.12755
5.13200245,115.1429161,16.50423,20.085554
5.121828218,115.5270299,16.751184,20.039642
5.126616092,115.8797828,17.000956,19.989729
5.146366072,116.2004388,17.253544,19.935743
5.097888848,116.4882671,17.508953,19.877615
4.829767904,116.742593,17.767221,19.815264
4.679548357,116.9627753,18.028337,19.748629
4.671768061,117.1481737,18.292345,19.677631
4.649624144,117.2981469,18.559223,19.602217
4.641843849,117.4120496,18.82902,19.522312
4.632268101,117.4892349,19.101717,19.43786
4.638252943,117.5290562,19.377357,19.348801
4.640048396,117.5309077,19.655922,19.255087
4.643040817,117.4943109,19.937452,19.156652
4.600548436,117.4188115,20.221926,19.053461
4.542495463,117.3039557,20.509384,18.945457
4.519753062,117.1493278,20.799807,18.832615
4.512571251,116.9545796,21.093229,18.714876
4.441351625,116.7193696,21.389631,18.592226
4.423397097,116.443359,21.689047,18.464619
4.422200129,116.1262773,21.991449,18.332048
4.40963196,115.7679246,22.296873,18.194473
4.40963196,115.3681048,22.605289,18.051899
4.40544257,114.9266265,22.916733,17.904299
4.363548672,114.4433541,23.231165,17.751684
4.240859401,113.9181862,23.548622,17.59403
4.113382256,113.3510224,23.869062,17.43137
4.107995897,112.7417815,24.19252,17.263693
4.090639854,112.0904958,24.518944,17.091036
4.051139893,111.3972383,24.84837,16.913393
3.992488437,110.6620819,25.180746,16.730825
3.941617276,109.8851356,25.516096,16.543341
3.938624854,109.0666238,25.85437,16.351006
3.939223339,108.2067935,26.195591,16.153835
3.936829402,107.3058931,26.539701,15.951916
3.929049106,106.3642889,26.886715,15.745283
3.928450622,105.3825625,27.236574,15.534021
3.930246075,104.3613181,27.589296,15.31818
3.930246075,103.3011626,27.944809,15.097867
3.930246075,102.2027724,28.303122,14.873143
3.927253654,101.0668984,28.664171,14.64412
3.926655169,99.89429529,29.027958,14.410873
3.925458201,98.6857487,29.394403,14.173538
3.924859717,97.44240046,29.763514,13.932199
3.924261232,96.16562064,30.135204,13.686993
3.923064264,94.85678308,30.509474,13.438022
3.923662748,93.51729049,30.886232,13.185449
3.921867295,92.14871849,31.265478,12.929376
3.920670327,90.75270678,31.647114,12.669971
3.917079421,89.33089519,32.031128,12.40736
3.912291547,87.88502573,32.417423,12.141725
3.878776429,86.41717741,32.805981,11.873193
3.856632512,84.92949858,33.196697,11.601955
3.863814323,83.42413835,33.589558,11.328156
3.869799165,81.90332405,33.984444,11.052003
3.870996134,80.36942988,34.381332,10.773634
3.886556724,78.82484625,34.780113,10.493271
3.972139972,77.27196805,35.180748,10.211069
4.11817013,75.7133157,35.583126,9.927254
4.152882216,74.15154892,35.987206,9.641983
4.447934952,72.58933467,36.39286,9.355491
5.151752431,71.02934667,36.800053,9.067949
5.608395914,69.47433949,37.208656,8.779593
5.812479043,67.92712115,37.618622,8.490593
5.916615303,66.39050058,38.029816,8.201199
6.287077054,64.86726267,38.442188,7.911585
7.2087428,63.36004284,38.855602,7.621999
7.448734985,61.87141933,39.270012,7.332622
7.433174394,60.40397024,39.685268,7.043704
7.61271967,58.96020396,40.101311,6.755428
8.849188132,57.542391,40.517998,6.468045
9.210672619,56.15275123,40.935276,6.18174
9.194513544,54.79350264,41.352985,5.89676
9.203490808,53.46664126,41.771065,5.613293
9.279498308,52.17373313,42.189365,5.331584
9.488369312,50.91629507,42.607819,5.051818
9.503929902,49.69582956,43.026272,4.774238
9.953990059,48.51341505,43.444656,4.499025
10.06231571,47.36964513,43.862816,4.226422
10.14011866,46.26508682,44.280674,3.956604
10.16465651,45.2002573,44.698082,3.689805
10.18141407,44.17504884,45.11496,3.426197
10.23408069,43.18892819,45.531155,3.166011
10.31008819,42.24135397,45.94659,2.909411
10.30530031,41.33163019,46.361107,2.656615
10.3058988,40.4580675,46.774635,2.407786
10.26699732,39.61858355,47.187004,2.163136
10.26759581,38.81109499,47.598148,1.922811
10.26520187,38.03351852,48.007912,1.687013
10.32026242,37.28377078,48.41621,1.455887
10.33342907,36.55976847,48.822891,1.229622
10.34898966,35.85942826,49.227879,1.008346
10.35317905,35.1806668,49.631016,0.792237
10.38070933,34.52140078,50.032227,0.581419
10.39866386,33.87954687,50.431358,0.376056
10.40225476,33.25302174,50.82835,0.176251
10.39986083,32.63974206,51.22303,-0.017842
10.40764112,32.03762451,51.615337,-0.206123
10.41242899,31.44458575,52.005116,-0.388461
10.56504248,30.85854246,52.392303,-0.564776
11.04801927,30.27741131,52.776745,-0.734946
11.72251102,29.69910898,53.158386,-0.898895
11.88888964,29.12155213,53.537064,-1.05653
12.09057883,28.54265743,53.912731,-1.207795
13.91834974,27.96034156,54.285236,-1.352601
15.1470379,27.3725212,54.654518,-1.490903
15.20628784,26.77711301,55.020443,-1.622642
15.23501509,26.17203366,55.382946,-1.74779
15.25895446,25.55519983,55.741901,-1.866292
15.29665897,24.92452818,56.09724,-1.978136
15.48218908,24.2779354,56.448849,-2.083298
15.53186328,23.61333816,56.796658,-2.18178
15.54682538,22.92865311,57.140549,-2.273561
15.6868707,22.22179695,57.480469,-2.358663
15.71200704,21.49068633,57.816299,-2.437096
15.7550979,20.73323794,58.147995,-2.50889
15.77006001,19.94736843,58.475433,-2.574061
15.77185546,19.1309945,58.798573,-2.632662
15.77604485,18.2820328,59.117313,-2.684738
15.79160544,17.39840001,59.431591,-2.730344
16.0022719,16.4780128,59.741322,-2.769534
16.11418845,15.51878785,60.046452,-2.802389
16.22790046,14.51864182,60.346886,-2.828983
16.27218829,13.47549139,60.64259,-2.8494
16.37812001,12.38725323,60.933464,-2.863725
16.42480178,11.25184401,61.21949,-2.872065
16.47028658,0,61.500557,-2.874522
16.47686991,0,61.776649,-2.871203
16.47926384,0,62.047684,-2.862225
16.49482444,0,62.313629,-2.847713
16.53312743,0,62.574409,-2.827795
16.70608938,0,62.829998,-2.802596
16.76114993,0,63.080334,-2.772257
16.76174841,0,63.325371,-2.736923
16.77850597,0,63.565083,-2.696732
16.79586201,0,63.799408,-2.651836
16.7964605,0,64.028328,-2.602383
16.79705898,0,64.251785,-2.548534
16.81740745,0,64.469772,-2.49044
16.85271802,0,64.682236,-2.428264
16.872468,0,64.88916,-2.362161
16.88264223,0,65.090523,-2.292303
16.94548308,0,65.286278,-2.218844
17.06278599,0,65.476418,-2.141955
17.15315711,0,65.660927,-2.061792
17.15435408,0,65.839775,-1.978528
17.15614953,0,66.012962,-1.892318
17.17530103,0,66.180466,-1.803334
17.18487678,0,66.342278,-1.711727
17.18846768,0,66.498383,-1.617669
17.19026313,0,66.648781,-1.521309
17.20522524,0,66.793457,-1.422813
17.22796764,0,66.932426,-1.322324
17.23694491,0,67.065659,-1.220006
17.27345245,0,67.193192,-1.115998
17.28123274,0,67.315002,-1.010456
17.28901304,0,67.431107,-0.90351
17.30337666,0,67.541512,-0.795314
17.32671754,0,67.646225,-0.685993
17.3662175,0,67.745247,-0.575687
17.43145229,0,67.8386,-0.464511
17.44162652,0,67.9263,-0.352605
17.44282349,0,68.008362,-0.240075
17.47035376,0,68.084801,-0.127045
17.53618703,0,68.15564,-0.013615
17.58945213,0,68.220886,0.100094
17.66725508,0,68.280579,0.213994
17.71573231,0,68.33474,0.32798
17.80071707,0,68.383377,0.44197
17.84739884,0,68.426537,0.555861
17.92520179,0,68.464226,0.669586
17.92340634,0,68.496483,0.783057
17.90724727,0,68.523346,0.896211
17.93298209,0,68.544846,1.008965
17.93178512,0,68.561005,1.121271
17.84261097,0,68.571861,1.233058
17.74505804,0,68.577438,1.344282
17.6971793,0,68.577782,1.454878
17.746255,0,68.572922,1.564815
17.632543,0,68.562904,1.67404
17.31893725,0,68.547752,1.782523
17.21001311,0,68.527504,1.890218
17.21899038,0,68.502213,1.99711
17.12502835,0,68.471916,2.103161
16.58280162,0,68.436638,2.208354
16.55108195,0,68.396431,2.312661
17.18487678,0,68.351326,2.416077
17.4500053,0,68.301376,2.518576
17.41170231,0,68.246613,2.620155
17.35724024,0,68.18708,2.720796
17.45539166,0,68.12281,2.820506
17.25968731,0,68.053864,2.919266
17.21539947,0,67.98027,3.017087
17.18607374,0,67.902069,3.113955
17.16333134,0,67.819298,3.209885
17.17230861,0,67.732018,3.304866
17.15136166,0,67.640251,3.398914
17.13340713,0,67.544044,3.492022
17.13340713,0,67.443443,3.584207
17.15255863,0,67.338478,3.675464
17.16931619,0,67.229202,3.765811
17.19744495,0,67.115654,3.855244
17.19684646,0,66.997856,3.943782
17.16632376,0,66.875862,4.03142
17.18727071,0,66.74971,4.118176
17.2028313,0,66.619423,4.204047
17.21001311,0,66.485046,4.289048
17.25789186,0,66.346634,4.373176
17.26507367,0,66.204193,4.456446
17.38297506,0,66.057793,4.538853
17.54995217,0,65.907425,4.62041
17.8073004,0,65.753166,4.701111
17.83243674,0,65.595009,4.780967
17.74864894,0,65.433022,4.859969
17.46197498,0,65.267197,4.938125
17.01909664,0,65.09761,5.015426
16.8988013,0,64.924248,5.091876
16.76952871,0,64.747162,5.167463
15.3104241,0,64.566383,5.242191
14.09191017,0,64.381935,5.316045
14.12003893,0,64.193825,5.389026
14.21459944,0,64.002106,5.461116
14.41509166,0,63.806786,5.532316
14.62934903,0,63.607903,5.602605
14.65209143,0,63.405457,5.671977
14.62575812,0,63.199493,5.740414
14.74904588,0,62.990017,5.807908
14.65807627,0,62.777073,5.874436
14.71553076,0,62.560658,5.939991
14.85378062,0,62.340809,6.004548
14.89387906,0,62.117535,6.068097
15.03571983,0,61.890869,6.130612
15.14105306,0,61.660812,6.192082
15.12369702,0,61.427406,6.252481
14.9267957,0,61.190643,6.311797
14.81787156,0,60.950573,6.370002
14.69458381,0,60.707191,6.427084
14.66346263,0,60.460537,6.483016
14.55453849,0,60.210602,6.537784
14.51384157,0,59.957432,6.591363
14.46656131,0,59.701027,6.643739
14.46955373,0,59.441429,6.694885
14.47673554,0,59.178627,6.744788
14.4629704,0,58.912674,6.793424
14.42347044,0,58.643562,6.84078
14.24033426,0,58.37133,6.886832
14.1858722,0,58.095982,6.93157
14.20023582,0,57.817566,6.974971
14.18527371,0,57.536068,7.017026
14.17390251,0,57.251549,7.057716
14.19066007,0,56.963997,7.097031
14.19844037,0,56.673466,7.134954
14.20801611,0,56.37994,7.171478
14.17091009,0,56.083492,7.206589
14.14876617,0,55.784103,7.240282
14.14158436,0,55.481834,7.272544
14.10148592,0,55.17667,7.303373
14.24153123,0,54.868687,7.33276
14.37499322,0,54.557865,7.360706
14.39115229,0,54.244247,7.387207
14.41868257,0,53.927883,7.412258
14.4061144,0,53.608768,7.435865
14.39893259,0,53.286957,7.458028
14.39893259,0,52.962452,7.478752
14.4174856,0,52.635323,7.498037
14.42287196,0,52.30555,7.515897
14.41509166,0,51.973206,7.532335
14.42047802,0,51.638283,7.547363
14.38636442,0,51.300858,7.560991
14.40731137,0,50.960915,7.573233
14.44561436,0,50.618523,7.584102
14.55573546,0,50.273689,7.593615
14.59762936,0,49.926468,7.601786
14.56531121,0,49.57687,7.608637
14.51384157,0,49.224953,7.614187
14.59044755,0,48.870712,7.618457
14.64670507,0,48.514229,7.621468
14.64072023,0,48.155495,7.623246
14.59822784,0,47.794575,7.623815
14.54376578,0,47.431473,7.623198
14.45698556,0,47.066261,7.621426
14.41688712,0,46.698929,7.618525
14.30616753,0,46.329559,7.614524
14.24931153,0,45.958138,7.609452
14.19784188,0,45.584747,7.60334
14.22836458,0,45.209373,7.59622
14.26247818,0,44.832096,7.588122
14.26008424,0,44.452908,7.579079
14.19903885,0,44.071884,7.569125
14.15714495,0,43.689022,7.558291
14.10806924,0,43.304401,7.546612
14.21400096,0,42.918011,7.534119
14.13739497,0,42.529919,7.520848
14.12063741,0,42.140129,7.50683
14.10328137,0,41.748718,7.492101
14.14517527,0,41.355667,7.476692
14.15295556,0,40.961071,7.460638
14.15116011,0,40.564911,7.44397
14.07455413,0,40.167271,7.426723
13.94528153,0,39.768135,7.408926
13.29413066,0,39.367584,7.390613
12.93623708,0,38.965618,7.371812
12.93743405,0,38.562302,7.352554
13.18400956,0,38.157642,7.332867
14.42287196,0,37.751705,7.312781
14.41868257,0,37.34449,7.292323
14.38875836,0,36.936073,7.271519
14.36003111,0,36.526455,7.250394
14.35644021,0,36.115704,7.228973
14.33968265,0,35.703819,7.207279
14.3378872,0,35.290878,7.185336
14.30497056,0,34.876873,7.163161
14.30137966,0,34.461891,7.140779
14.2995842,0,34.045914,7.118206
14.28402361,0,33.629036,7.095462
14.26068273,0,33.211239,7.072562
14.26427363,0,32.792618,7.049522
14.2732509,0,32.373154,7.026357
14.27145544,0,31.952948,7.00308
14.32412206,0,31.531979,6.979701
14.42765983,0,31.110342,6.956235
14.45459162,0,30.68803,6.93269
14.44501588,0,30.265129,6.909075
14.31933418,0,29.841639,6.8854
14.12003893,0,29.417646,6.861673
13.8207968,0,28.993151,6.8379
14.44262194,0,28.568243,6.814088
14.46536434,0,28.142923,6.79024
14.46117495,0,27.717285,6.766363
14.47194767,0,27.291328,6.74246
14.62097025,0,26.865149,6.718535
14.63653084,0,26.438751,6.694591
14.67004595,0,26.012234,6.670633
14.75922011,0,25.585602,6.646662
14.67303838,0,25.158955,6.622681
14.56830363,0,24.7323,6.59869
14.36840989,0,24.305742,6.574696
14.11884196,0,23.879288,6.550696
13.89081946,0,23.453051,6.526698
13.88004674,0,23.027037,6.502699
13.77112261,0,22.601357,6.478707
13.73641052,0,22.176027,6.454722
13.65621363,0,21.751162,6.430749
13.46529716,0,21.326777,6.406789
13.39946389,0,20.902985,6.382849
13.24984283,0,20.479811,6.358932
13.167252,0,20.057377,6.335045
13.2013656,0,19.6357,6.311191
13.24206253,0,19.214905,6.28738
13.28575188,0,18.795021,6.263616
13.40485025,0,18.376169,6.239911
13.45093354,0,17.958384,6.216268
13.4407593,0,17.541788,6.192701
13.43836537,0,17.126421,6.169219
13.47666836,0,16.712412,6.145833
13.48684259,0,16.299795,6.122553
13.48145623,0,15.888707,6.099394
13.48205472,0,15.479187,6.076367
13.4826532,0,15.071371,6.053488
13.51257741,0,14.665302,6.030769
13.52993346,0,14.26112,6.008231
13.55387283,0,13.858872,5.985885
13.57721371,0,13.458697,5.963752
13.57182735,0,13.060646,5.941849
13.56883493,0,12.664862,5.920196
13.62030458,0,12.271397,5.898809
13.67297119,0,11.880393,5.877713
13.69391814,0,11.49191,5.856925
13.83635739,0,11.106091,5.836469
14.58984907,0,10.722994,5.816366
14.63234145,0,10.342767,5.79664
14.49947794,0,9.96547,5.777313
14.32292509,0,9.59125,5.75841
14.31753873,0,9.22017,5.739955
14.31035692,0,8.852379,5.721974
14.30197814,0,8.487941,5.70449
14.36003111,0,8.127005,5.687531
14.51144763,0,7.769635,5.671124
14.49409159,0,7.41598,5.655294
14.71253834,0,7.066109,5.640069
14.98065928,0,6.720168,5.625477
15.78202969,0,6.378225,5.611544
16.18002172,0,6.040426,5.598299
16.49661989,0,5.706842,5.585769
18.46683004,0,5.377617,5.573985
18.79061002,0,5.05282,5.562971
18.90851142,0,4.732575,5.552759
20.03605575,0,4.417008,5.543378
20.7105475,0,4.106185,5.534855
20.75303988,0,3.800247,5.52722
20.93318364,0,3.499262,5.520501
21.37486502,0,3.203364,5.514726
21.3449408,0,2.912623,5.509925
21.45984978,0,2.62717,5.506126
21.53585728,0,2.347068,5.503355
21.58014511,0,2.072448,5.501641
21.59271328,0,1.803372,5.501011
21.60169055,0,1.539963,5.501492
21.5729633,0,1.28228,5.503109
21.53944819,0,1.030441,5.505889
21.53286486,0,0.784504,5.509859
21.68607683,0,0.544579,5.515039
21.69385712,0,0.310716,5.521455
21.65435716,0,0.083023,5.529128
21.6681223,0,-0.138452,5.538082
21.64717535,0,-0.353614,5.548335
21.65794807,0,-0.562423,5.559906
21.74712222,0,-0.764786,5.572813
21.82253124,0,-0.960667,5.587076
21.9871144,0,-1.14999,5.602705
21.97334927,0,-1.332725,5.619716
21.97993259,0,-1.508798,5.638118
21.98112956,0,-1.678189,5.657926
21.93564476,0,-1.840841,5.679142
21.85724332,0,-1.99674,5.701774
21.81056155,0,-2.145832,5.725828
21.79859187,0,-2.288114,5.751305
21.63580415,0,-2.423554,5.778201
20.86854734,0,-2.552152,5.806515
20.86076704,0,-2.67388,5.836239
21.03612293,0,-2.788754,5.86737
22.96503767,0,-2.896767,5.899887
23.88131706,0,-2.997936,5.933784
24.05786991,0,-3.092262,5.969041
25.01544471,0,-3.17978,6.005638
25.63667137,0,-3.260509,6.043549
25.67078497,0,-3.334486,6.082753
25.69472434,0,-3.401742,6.123215
25.70310312,0,-3.462332,6.164907
25.7569667,0,-3.516302,6.207783
26.06698154,0,-3.56371,6.251814
26.80551111,0,-3.604615,6.29695
28.5309412,0,-3.639097,6.343144
30.3473409,0,-3.667224,6.390343
30.4424999,0,-3.689078,6.438499
30.40539388,0,-3.704746,6.487547
30.40299994,0,-3.714327,6.537428
30.40000752,0,-3.717917,6.588072
30.40898478,0,-3.715617,6.639419
30.41137872,0,-3.707542,6.691385
30.1157275,0,-3.693809,6.743898
30.09956842,0,-3.674538,6.796873
30.10016691,0,-3.64985,6.850234
30.1079472,0,-3.619883,6.903883
30.0546821,0,-3.58477,6.957733
30.04450787,0,-3.544653,7.011686
30.0283488,0,-3.49967,7.06565
29.97328825,0,-3.449979,7.119514
29.97089431,0,-3.395726,7.17318
29.96431098,0,-3.33707,7.226535
29.9637125,0,-3.274164,7.279474
29.96670492,0,-3.20718,7.331876
29.97089431,0,-3.136274,7.383629
29.96909886,0,-3.061618,7.434615
30.00081852,0,-2.983375,7.484713
30.00440943,0,-2.901725,7.533797
29.99962155,0,-2.81683,7.581747
30.01099275,0,-2.728872,7.628433
30.34494697,0,-2.638015,7.673734
30.65316636,0,-2.544443,7.717514
30.66094665,0,-2.448326,7.759649
30.7501208,0,-2.34983,7.800014
30.79799954,0,-2.249135,7.838476
30.8261283,0,-2.146409,7.874907
30.81894649,0,-2.041839,7.909177
30.94283273,0,-1.935566,7.941165
31.103825,0,-1.827768,7.970745
31.19898399,0,-1.718607,7.997792
31.33244598,0,-1.608259,8.022181
31.54251395,0,-1.496855,8.043797
31.56166545,0,-1.384557,8.062528
31.65682444,0,-1.271517,8.078257
31.66101383,0,-1.157895,8.090872
31.64844566,0,-1.043803,8.100275
31.63647598,0,-0.929385,8.106366
31.64006689,0,-0.814775,8.109048
31.63468053,0,-0.700113,8.108225
31.68854411,0,-0.585487,8.103821
31.70171076,0,-0.471019,8.095757
31.8866424,0,-0.356821,8.083958
31.8788621,0,-0.243006,8.068357
31.91836206,0,-0.129634,8.0489
31.97222564,0,-0.016805,8.025536
31.79088492,0,0.095397,7.998216
31.78549856,0,0.20689,7.966911
31.76814251,0,0.317641,7.931592
31.78729401,0,0.427578,7.892243
31.82440003,0,0.536647,7.848845
31.82858942,0,0.644798,7.801408
31.82858942,0,0.752025,7.749935
31.83397578,0,0.858287,7.694444
38.58487813,-10.75678396,3.684098,6.906628
38.64352959,-10.72737907,3.78528,6.865499
38.74347646,-10.77277667,3.884902,6.821076
38.7189386,-10.899785,3.982908,6.773401
38.71774163,-11.11521231,4.079239,6.722519
38.72971132,-11.42586682,4.173862,6.668499
38.73689313,-11.83855679,4.266755,6.611421
38.75185524,-12.36008362,4.357901,6.551371
38.79973398,-12.99574978,4.447289,6.488444
38.83743848,-13.74748773,4.534934,6.42276
38.9469611,-14.61676995,4.620852,6.35444
39.0307489,-15.6046808,4.705061,6.283611
39.21149114,-16.70939824,4.787603,6.21042
39.21508205,-17.92778259,4.868522,6.135024
39.23662748,-19.25665306,4.947867,6.057579
39.2090972,-20.69144121,5.025696,5.978254
39.20191539,-22.2257499,5.102079,5.897234
39.24261232,-23.85305715,5.177089,5.814703
39.33777132,-25.56654063,5.250798,5.730847
39.388044,-27.35815183,5.323293,5.645869
39.44549848,-29.21952939,5.394659,5.55997
40.2504598,-31.14232736,5.464984,5.473356
40.42342175,-33.11843831,5.53436,5.386234
40.42461872,-35.13994238,5.60288,5.298815
40.37853543,-37.19892625,5.670638,5.211312
40.43838386,-39.28783,5.737727,5.123937
40.48267169,-41.39990356,5.804239,5.0369
40.65084576,-43.52850981,5.870267,4.950411
40.65204273,-45.66715828,5.9359,4.864681
40.69692905,-47.81048081,6.001223,4.77991
40.82919407,-49.95362785,6.066317,4.696298
41.03267872,-52.091767,6.131265,4.614043
41.11467106,-54.22066773,6.196141,4.533336
41.22359519,-56.33690696,6.261008,4.454356
41.2804512,-58.43711823,6.325934,4.377282
41.24813305,-60.518014,6.390978,4.302289
41.23975427,-62.57663549,6.456187,4.22953
41.2385573,-64.61010955,6.521605,4.159161
41.22898155,-66.61557445,6.587275,4.091331
41.20983005,-68.59035023,6.653226,4.026172
41.19546643,-70.5319024,6.719477,3.963806
41.14519376,-72.43770069,6.786047,3.904353
41.0141257,-74.30524066,6.852949,3.847921
40.46531565,-76.13207833,6.920179,3.794601
40.45035354,-77.91577831,6.987732,3.744478
40.43778537,-79.65395502,7.055603,3.697634
40.43539143,-81.34461274,7.123765,3.65413
40.42282327,-82.9859393,7.192192,3.614017
40.39170208,-84.57613245,7.260856,3.577345
40.28756582,-86.1137756,7.329718,3.544149
40.22532346,-87.59797891,7.398728,3.514449
40.30791429,-89.02789047,7.467841,3.488261
40.31988397,-90.402842,7.537001,3.465596
40.32227791,-91.72294625,7.606147,3.446445
40.37554301,-92.9885235,7.675214,3.430794
40.46052777,-94.19991329,7.744134,3.41863
40.51618681,-95.35776965,7.812837,3.409921
40.53055043,-96.4630029,7.881245,3.404627
40.74301234,-97.51653128,7.94928,3.402708
41.12364832,-98.5194014,8.016865,3.404114
40.81602742,-99.47296552,8.083914,3.408787
40.51139893,-100.3786204,8.150346,3.416662
40.49823228,-101.2377674,8.216077,3.427675
40.26721736,-102.0518439,8.281023,3.44175
40.36117939,-102.8223051,8.345097,3.458807
41.05841354,-103.550605,8.408216,3.478768
41.13262559,-104.2381582,8.470295,3.501545
41.15417102,-104.886324,8.531252,3.527048
41.15536799,-105.4964577,8.591005,3.555186
41.14698921,-106.0698729,8.649474,3.585865
41.13083013,-106.6077025,8.706581,3.618988
41.1625498,-107.1110303,8.762252,3.654456
41.36842838,-107.5809351,8.816411,3.692169
41.39715563,-108.0184114,8.868989,3.732027
41.40673137,-108.4243836,8.919919,3.773929
41.41092076,-108.7997737,8.969136,3.817774
41.66767051,-109.1454878,9.016576,3.863461
39.95540707,-109.4623921,9.062187,3.91089
40.05894484,-109.7513467,9.105912,3.95996
40.3605809,-110.0131968,9.147696,4.010571
40.17924018,-110.2486616,9.1875,4.062625
40.28517189,-110.4583988,9.225277,4.116027
40.29115673,-110.643067,9.260987,4.17068
40.25285374,-110.8033794,9.294597,4.22649
40.24148254,-110.9401263,9.326076,4.283367
40.26123252,-111.054104,9.355394,4.341221
39.79740722,-111.1460558,9.382529,4.399964
39.25218807,-111.2164903,9.407463,4.459511
39.25039262,-111.2658513,9.430182,4.51978
39.23183961,-111.2945839,9.450667,4.58069
38.63275687,-111.3031575,9.468918,4.642162
38.13601494,-111.2920617,9.48493,4.704123
38.06000744,-111.2617864,9.4987,4.7665
37.90559851,-111.2127379,9.510232,4.829221
37.21015981,-111.1451145,9.519533,4.89222
36.59910739,-111.059083,9.526616,4.955434
35.51704786,-110.9548119,9.531492,5.018797
33.86762527,-110.8324838,9.534179,5.082252
34.51279129,-110.6922881,9.534698,5.145741
34.41404139,-110.5344143,9.53307,5.20921
34.30870816,-110.359047,9.529322,5.272606
32.49769482,-110.1663639,9.523484,5.335882
30.76328746,-109.956542,9.515587,5.398989
30.73635567,-109.7297624,9.505662,5.46188
30.62683305,-109.4862243,9.493749,5.524516
30.67531027,-109.2261319,9.479885,5.586854
30.79440864,-108.9496904,9.464112,5.648857
30.86383281,-108.6571182,9.446468,5.710487
30.85964342,-108.3486452,9.427003,5.771712
30.83690102,-108.0245018,9.405758,5.832498
30.78303744,-107.6849474,9.38278,5.892812
30.69625722,-107.3303145,9.358119,5.952629
30.5220983,-106.9609473,9.331825,6.011919
30.40958327,-106.5771902,9.303946,6.070657
30.22285618,-106.1793936,9.274535,6.128819
30.2450001,-105.7679107,9.243644,6.186383
30.21806831,-105.3430954,9.211322,6.243326
30.2144774,-104.9053379,9.177622,6.299629
30.21567437,-104.4550812,9.142597,6.355271
30.15941685,-103.9927728,9.1063,6.410238
30.03972,-103.5188575,9.068783,6.464511
29.98585642,-103.0337675,9.030097,6.518075
29.93797768,-102.5379318,8.990295,6.570917
28.79427427,-102.0317821,8.949428,6.623023
28.52016849,-101.5158023,8.907546,6.674379
28.51178971,-100.9905223,8.864697,6.724977
28.51897152,-100.4564735,8.820934,6.774805
28.42321404,-99.91415027,8.776303,6.823854
28.29992628,-99.36395235,8.73085,6.872116
28.02522201,-98.80626442,8.684623,6.919582
28.01205536,-98.2414793,8.637665,6.966246
27.95041148,-97.67006132,8.59002,7.012101
27.75710107,-97.09251178,8.541734,7.057144
27.43930593,-96.50933092,8.492844,7.10137
27.28908638,-95.92094361,8.443393,7.144776
27.14066229,-95.32766209,8.393418,7.187359
27.04849571,-94.72978936,8.342957,7.229119
27.07662447,-94.12763762,8.292049,7.270052
27.11073808,-93.52156231,8.240726,7.310163
27.1251017,-92.91193162,8.189022,7.34945
27.28190457,-92.29910874,8.136972,7.387915
27.43032867,-91.68336351,8.084604,7.425562
27.45307107,-91.06488249,8.03195,7.462395
27.46504075,-90.44384932,7.979039,7.498418
27.46264681,-89.82043236,7.925898,7.533637
27.46384378,-89.19475987,7.872553,7.568059
27.46623772,-88.56695361,7.81903,7.601693
27.46384378,-87.93713141,7.765357,7.634546
27.45785894,-87.30537601,7.711552,7.666629
27.4518741,-86.67175163,7.65764,7.697952
27.45426804,-86.03632184,7.603644,7.728527
27.42434382,-85.39912221,7.549584,7.758368
27.39501809,-84.76014571,7.495479,7.787488
27.19632132,-84.11938173,7.441349,7.815901
27.15382894,-83.47681814,7.387213,7.843623
27.07602599,-82.83243552,7.333088,7.870673
27.02096544,-82.18621225,7.278993,7.897066
26.87673073,-81.5381266,7.224943,7.922822
26.77798083,-80.88815499,7.170956,7.947959
26.76122327,-80.23627208,7.117044,7.972501
26.33390552,-79.58245252,7.063226,7.996465
25.764747,-78.92667724,7.009514,8.019876
25.85990599,-78.26894414,6.955924,8.042755
25.66120922,-77.6092539,6.902466,8.065128
25.30271715,-76.94760055,6.849159,8.087018
26.03167097,-76.28391729,6.796011,8.108448
25.82639087,-75.6181046,6.743036,8.129446
24.71380865,-74.95006425,6.690247,8.150037
24.58214212,-74.27979186,6.637654,8.170246
24.69046777,-73.60742855,6.585269,8.190104
24.77246011,-72.93312795,6.533104,8.209634
24.79460402,-72.2570196,6.48117,8.228865
25.16386881,-71.57911485,6.429474,8.247825
25.43617914,-70.89938884,6.37803,8.266541
25.29673231,-70.21782205,6.326845,8.285044
26.21121625,-69.53450239,6.27593,8.303359
26.49070839,-68.84961695,6.225293,8.321516
26.42367816,-68.16335648,6.174944,8.339542
25.92873168,-67.47589462,6.12489,8.357468
25.51876997,-66.7873582,6.075141,8.375318
24.52049824,-66.09786614,6.025703,8.393123
23.58686281,-65.40753411,5.976586,8.410909
23.34746911,-64.71644726,5.927795,8.428703
23.13081781,-64.02467401,5.879339,8.446533
23.01112096,-63.3322828,5.831223,8.464425
23.02069671,-62.6393529,5.783454,8.482405
23.0171058,-61.94598065,5.736038,8.500497
22.95665889,-61.25226393,5.688982,8.518726
22.93870436,-60.55830781,5.64229,8.537117
22.93930285,-59.86425358,5.595968,8.55569
22.93930285,-59.17025382,5.55002,8.574471
22.92853013,-58.47646104,5.504453,8.593481
22.92793165,-57.78302596,5.459269,8.612741
22.9297271,-57.09009766,5.414472,8.632268
22.93212104,-56.39782512,5.370067,8.652082
22.87885594,-55.70634788,5.326055,8.672202
22.3976746,-55.0157791,5.282441,8.692644
21.93085689,-54.3262274,5.239226,8.713424
21.80936458,-53.63781171,5.196414,8.734554
19.43996543,-52.95075,5.154005,8.756052
17.40272504,-52.26531543,5.112002,8.777926
17.37339932,-51.58178171,5.070405,8.80019
17.33270239,-50.9004197,5.029215,8.822851
17.3398842,-50.22149574,4.988432,8.84592
17.3398842,-49.54527575,4.948058,8.869403
17.25669489,-48.87202419,4.908091,8.893308
17.21599796,-48.20199801,4.86853,8.917637
17.10348292,-47.53545178,4.829372,8.942396
16.87067254,-46.87264127,4.790619,8.967588
16.70848331,-46.21384836,4.752267,8.993215
16.66778638,-45.55937989,4.714313,9.019274
16.66479396,-44.90954366,4.676755,9.045766
16.64145308,-44.26462921,4.639589,9.072689
16.60733947,-43.62487427,4.602812,9.100039
16.59955918,-42.99050741,4.566421,9.127813
16.59656676,-42.36175093,4.530409,9.156005
16.52714258,-41.73876524,4.494772,9.184608
16.4846502,-41.12167568,4.459506,9.213614
16.52175623,-40.51060716,4.424604,9.243015
16.57143042,-39.90568608,4.390061,9.272801
16.57382436,-39.30704121,4.35587,9.302962
16.62649097,-38.71480154,4.322025,9.333487
16.59536979,-38.12906072,4.28852,9.364362
16.45652144,-37.54972779,4.255347,9.395575
16.40086241,-36.97665174,4.2225,9.427113
16.39667302,-36.40967912,4.18997,9.458958
16.39547605,-35.8486038,4.157752,9.491098
16.39188514,-35.29316829,4.125837,9.523514
16.39188514,-34.74311296,4.094218,9.556191
16.36255942,-34.19814583,4.062886,9.589112
16.3517867,-33.6578812,4.031837,9.622257
16.3553776,-33.12191651,4.00106,9.655609
16.3553776,-32.58984601,3.97055,9.68915
16.38530182,-32.06123165,3.940298,9.722859
16.38829424,-31.53561669,3.9103,9.756717
16.37333213,-31.01254417,3.880547,9.790704
16.36914274,-30.49155469,3.851034,9.8248
16.3553776,-29.97218482,3.821754,9.858983
16.32246097,-29.45397078,3.792701,9.893237
16.25423377,-28.93644375,3.763872,9.927536
16.19737776,-28.41910814,3.73526,9.961862
16.17224142,-27.90145951,3.706862,9.996192
15.92746137,-27.38299699,3.678672,10.030507
15.65096164,-26.86330131,3.650688,10.064786
15.60727229,-26.34203405,3.622907,10.099008
15.58512837,-25.81886027,3.595327,10.13315
15.58333292,-25.29346669,3.567944,10.1672
15.57794656,-24.76560401,3.54076,10.20113
15.57315869,-24.23503469,3.513772,10.234924
15.57315869,-23.70152424,3.48698,10.268564
15.57674959,-23.16486953,3.460385,10.302032
15.57794656,-22.62488592,3.433989,10.335305
15.57076475,-22.0813898,3.407792,10.368372
15.58213595,-21.53426013,3.381798,10.401212
15.58991625,-20.98348207,3.356008,10.433813
15.58153747,-20.42905112,3.330428,10.466156
15.54802235,-19.87094341,3.305061,10.49823
15.51929511,-19.3090297,3.279913,10.530022
15.48458302,-18.74314509,3.25499,10.561516
15.49894664,-18.17313158,3.230296,10.592706
15.51989359,-17.59899302,3.205841,10.623576
15.53006782,-17.02089661,3.181633,10.654121
15.56178749,-16.43901669,3.157678,10.684332
15.40857552,-15.85345345,3.133986,10.714202
15.17815908,-15.26408351,3.110569,10.743725
15.12609095,-14.6707416,3.087435,10.772896
15.03931074,-14.07328509,3.064598,10.801712
13.32644881,-13.47181046,3.042067,10.830171
13.08705511,-12.86655758,3.019856,10.858271
13.02541123,-12.25776701,2.997979,10.886013
13.00865367,-11.64557319,2.976449,10.913399
12.73993425,-11.02992713,2.955279,10.940432
12.50413145,-10.41076158,2.934487,10.967113
12.44667696,-9.788049308,2.914087,10.993451
11.66505653,-9.161985524,2.894095,11.019448
10.66858025,-8.532842232,2.874527,11.045114
10.15627774,-7.900887771,2.855401,11.070455
7.13692469,-7.266300181,2.836733,11.095481
5.612585304,-6.629164756,2.818542,11.120202
5.4037143,-5.989562602,2.800847,11.144629
5.2516993,-5.347639641,2.783664,11.168774
5.156540305,-4.703741045,2.767014,11.192649
5.13619184,-4.058250148,2.750915,11.216267
4.908169341,-3.411541585,2.735386,11.239643
4.87285877,-2.763896073,2.720447,11.262793
4.771116447,-2.115536953,2.706117,11.285729
4.659199892,-1.466687594,2.692416,11.30847
4.593965109,-0.817645374,2.679364,11.33103
4.581995424,-0.168838062,2.66698,11.353426
4.581995424,0.479293301,2.655283,11.375675
4.58139694,1.126305197,2.644295,11.397797
4.580798455,1.771740048,2.634033,11.419806
4.578404518,2.415135323,2.624518,11.441723
4.564639381,3.056027303,2.615769,11.463565
4.5448894,3.693922815,2.607806,11.485351
4.5335182,4.328297892,2.600646,11.507099
4.520351546,4.958627119,2.594309,11.52883
4.531124263,5.584390999,2.588812,11.550559
4.540700011,6.205088579,2.584174,11.572305
4.547283337,6.820222533,2.580412,11.594089
4.54907879,7.42929294,2.577544,11.615929
4.547881822,8.031771141,2.575586,11.637841
4.550275759,8.627110597,2.574555,11.659848
4.555662117,9.214765116,2.574466,11.681965
4.559851507,9.79424526,2.575335,11.704213
4.531722747,10.36516344,2.577176,11.726607
4.528730326,10.92714269,2.580004,11.749168
4.544290916,11.47979026,2.583832,11.771914
4.555063633,12.02262205,2.588671,11.794862
4.556859085,12.5551211,2.594536,11.818028
4.552669696,13.07677525,2.601438,11.841433
4.551472727,13.58719662,2.609385,11.86509
4.549677274,14.08612957,2.618389,11.889019
4.556260601,14.57332485,2.62846,11.913236
4.552071211,15.04854331,2.639604,11.937757
4.538904558,15.51157798,2.651829,11.962599
4.535313652,15.9622283,2.665143,11.987778
4.525737904,16.40030137,2.67955,12.013308
4.52932881,16.82569076,2.695055,12.039207
4.47726068,17.23834489,2.711661,12.065488
4.333025976,17.63821372,2.729373,12.092169
4.151086763,18.02531621,2.748191,12.119261
4.10979135,18.39979747,2.768116,12.146781
3.853640091,18.76181604,2.789149,12.174741
3.801571961,19.11152969,2.811289,12.203154
3.797382571,19.44909143,2.834532,12.232035
3.77464017,19.77465256,2.858879,12.261395
3.771049264,20.08836548,2.884323,12.291247
3.771647748,20.39041235,2.910861,12.321603
3.768655327,20.68100753,2.938485,12.352472
3.692647827,20.96036698,2.967194,12.38387
3.691450859,21.22873021,2.996974,12.415802
3.6860645,21.48641347,3.027821,12.448278
3.669306941,21.73374864,3.059725,12.481311
3.657935741,21.97105967,3.092677,12.514907
3.520284363,22.19857809,3.126665,12.549073
3.398193576,22.41647581,3.16168,12.583821
3.392208733,22.62492425,3.197708,12.619154
3.408966292,22.82414704,3.23474,12.65508
3.397595092,23.01446508,3.27276,12.691603
3.425723851,23.1962099,3.311755,12.72873
3.441284442,23.3697139,3.351713,12.766466
3.464625328,23.53531498,3.392617,12.804814
3.559784324,23.69335308,3.434456,12.843781
3.551405544,23.84416898,3.477211,12.883365
3.559784324,23.9881265,3.520869,12.92357
3.701026607,24.1256149,3.565412,12.964399
3.735140209,24.25702472,3.610828,13.005856
3.74651141,24.38270454,3.657097,13.047935
3.77045078,24.50286309,3.704205,13.090639
3.779428044,24.61768006,3.752135,13.133971
3.805761351,24.72734375,3.800871,13.177926
3.839276469,24.83214556,3.850395,13.222506
3.841071921,24.93244463,3.900692,13.267705
3.872791587,25.0286005,3.951744,13.313523
3.844064343,25.12088717,4.003536,13.359956
3.821321941,25.20941629,4.056049,13.407001
3.847056764,25.29428138,4.109267,13.454655
3.845261311,25.37557906,4.163174,13.502908
3.859026449,25.45342487,4.217755,13.551761
3.83389011,25.52794161,4.27299,13.601204
3.744117473,25.59925055,4.328865,13.651235
3.651950898,25.66743006,4.385362,13.701841
3.56636765,25.73251028,4.442466,13.75302
3.422132946,25.7945188,4.500162,13.804766
3.410761745,25.85348012,4.55843,13.857064
3.525072237,25.90940823,4.617257,13.90991
3.573549461,25.96231489,4.676625,13.963294
3.596890347,26.01220786,4.736521,14.017207
3.605867611,26.05904588,4.796926,14.071638
3.627413044,26.10275492,4.857825,14.126577
3.62681456,26.14326,4.919203,14.182014
3.634594855,26.18044554,4.981048,14.237941
4.051738378,26.21411744,5.043338,14.294341
4.195374598,26.24407261,5.106062,14.351206
4.20973822,26.2701193,5.169205,14.408525
4.233079106,26.29213698,5.232752,14.466283
4.241457885,26.31003284,5.296686,14.524469
4.247442728,26.32371307,5.360994,14.583073
4.25761696,26.33305358,5.42566,14.642078
4.263003318,26.33789562,5.490672,14.701477
4.264798771,26.33807857,5.556012,14.761251
4.288738141,26.33347268,5.621667,14.82139
4.32943507,26.32405525,5.687624,14.881881
4.330033554,26.30982682,5.75387,14.942711
4.351578987,26.29078399,5.820387,15.003863
4.371927452,26.2668744,5.887163,15.065329
4.440753141,26.23801231,5.954184,15.12709
4.477859164,26.2041121,6.021436,15.189135
4.477859164,26.16518445,6.088907,15.251452
4.474866743,26.12142972,6.15658,15.314024
4.575412097,26.07307043,6.224442,15.376838
4.610124184,26.02033669,6.292482,15.439881
4.64064688,25.96350752,6.360686,15.50314
4.665184735,25.90288132,6.429038,15.566599
4.669972609,25.8387583,6.497526,15.630244
4.736404361,25.7714927,6.566137,15.694063
4.789070975,25.70150158,6.634861,15.758042
4.794457333,25.62920556,6.703679,15.822164
4.94048749,25.55505723,6.772581,15.886415
4.969813218,25.47962235,6.841555,15.950784
4.975798061,25.40349172,6.910588,16.015257
4.962032923,25.32725853,6.979666,16.079815
4.99255562,25.25154633,7.048778,16.144449
5.086517647,25.1769998,7.117911,16.209143
5.09250249,25.10426424,7.187055,16.273878
5.129608513,25.03401649,7.256196,16.338648
5.160729694,24.96699658,7.325323,16.403433
5.161328179,24.90395213,7.394425,16.46822
5.360623434,24.84563323,7.463492,16.532995
5.421070343,24.79280634,7.532515,16.597744
5.462365757,24.74624451,7.601479,16.662453
5.486305127,24.7067214,7.670377,16.727102
5.486305127,24.67502836,7.739199,16.791683
5.495282391,24.65197777,7.807939,16.85618
5.497676328,24.63838321,7.876582,16.920574
5.506653591,24.63506885,7.945126,16.984856
5.525206603,24.64289708,8.013561,17.049006
5.522812666,24.66273895,8.081882,17.113016
5.52760054,24.69546441,8.150082,17.176867
5.550342942,24.74192931,8.218154,17.240543
5.605403493,24.80297947,8.286093,17.304033
5.632933768,24.87946039,8.353899,17.367321
5.617373178,24.9721938,8.421563,17.430389
5.610191367,25.08195297,8.489084,17.493229
5.611388335,25.20950522,8.556461,17.55582
5.632335284,25.35560347,8.623693,17.618153
5.662259496,25.52090383,8.690779,17.68021
5.660464044,25.70602256,8.757717,17.741978
5.659267075,25.91157512,8.824512,17.803446
5.649092843,26.13815454,8.891164,17.864592
5.629941347,26.38632691,8.957678,17.925409
5.629342863,26.65665667,9.024054,17.98588
5.634130737,26.94966233,9.090298,18.045994
5.687994319,27.26569294,9.156419,18.105738
5.690388256,27.60505854,9.222417,18.165094
5.689191288,27.96805781,9.288301,18.224051
5.730486701,28.35483592,9.354083,18.2826
5.775971504,28.76542762,9.419768,18.340721
5.761607882,29.19986529,9.485367,18.398407
5.758615461,29.65818672,9.55089,18.455643
5.81487298,30.14044095,9.616351,18.512423
5.812479043,30.6466784,9.681757,18.568727
5.79931239,31.17692308,9.747122,18.624548
5.780160894,31.73101739,9.812462,18.679873
5.746645776,32.30872748,9.877788,18.734694
5.750236681,32.90981792,9.943117,18.788994
5.81487298,33.53400848,10.008466,18.842766
5.732282154,34.18096393,10.073849,18.896004
5.723903374,34.85034567,10.13928,18.94869
5.728092764,35.54180939,10.204786,19.00082
5.728092764,36.25498927,10.270376,19.052382
5.770585146,36.98951441,10.33607,19.103363
5.753229103,37.74500863,10.401889,19.153759
5.7191155,38.52102233,10.467852,19.203556
5.722706406,39.31705213,10.533979,19.25275
5.701160973,40.13259336,10.600292,19.301329
5.702357941,40.96712806,10.66681,19.349279
5.69517613,41.82011006,10.73356,19.396605
5.681410993,42.69098959,10.800553,19.443285
5.671835244,43.57921207,10.86782,19.489317
5.67542615,44.48418922,10.93538,19.534687
5.658668591,45.40531835,11.003256,19.579388
5.662857981,46.34199684,11.071473,19.623413
5.680214024,47.29362725,11.140054,19.66675
5.684403414,48.25961861,11.209021,19.709393
5.665251918,49.23938035,11.278402,19.751333
5.666448886,50.23228011,11.348217,19.792555
5.592236839,51.23752516,11.41849,19.83305
5.532986898,52.25428423,11.489248,19.872808
5.513236918,53.28172966,11.560515,19.911823
5.504858139,54.31908464,11.632318,19.950075
5.490494517,55.36561033,11.704679,19.987556
5.483312706,56.42056876,11.777625,20.024252
5.478524831,57.48321906,11.851182,20.060152
5.188858454,58.55281403,11.925381,20.095243
5.066767667,59.62860565,12.000239,20.129507
5.061381309,60.70984121,12.075786,20.16293
5.035646486,61.7957344,12.15205,20.195498
5.04462375,62.88548426,12.229056,20.22719
5.041631328,63.97828949,12.306835,20.25799
5.032654065,65.07333922,12.385411,20.28788
5.029063159,66.16981042,12.464813,20.316843
5.029063159,67.26687925,12.545074,20.344856
5.009911663,68.36372558,12.626214,20.371895
4.970411703,69.45954378,12.708265,20.39794
4.987169262,70.55353175,12.791261,20.422964
4.966222313,71.64488505,12.875228,20.446947
4.956646565,72.73276443,12.960198,20.469862
4.930313258,73.8163043,13.046204,20.49168
4.897396624,74.89463836,13.133276,20.512375
4.908169341,75.96689749,13.221448,20.531916
4.897396624,77.03220634,13.310756,20.550274
4.814207313,78.08968872,13.401226,20.567417
4.79266188,79.13847739,13.492898,20.583309
4.774707353,80.17777072,13.585807,20.597919
4.752563435,81.20679624,13.679989,20.611214
4.75316192,82.22477989,13.775482,20.62315
4.697502884,83.23088087,13.872324,20.633694
4.649624144,84.22417199,13.970553,20.642805
4.647230207,85.2037203,14.070216,20.650444
4.483844007,86.16860101,14.171343,20.656569
4.430578908,87.11792176,14.27398,20.661135
4.415616802,88.05079836,14.378171,20.664099
4.412025897,88.96634537,14.48396,20.665413
4.380306231,89.86365891,14.59139,20.665037
4.265995739,90.74182082,14.700507,20.662916
4.247442728,91.59991256,14.81136,20.659004
4.197170051,92.43700603,14.924001,20.653254
4.157071606,93.25215166,15.038467,20.645607
4.159465543,94.04439696,15.154815,20.636019
3.896132472,94.81280376,15.273093,20.624432
3.784215918,95.55654096,15.393354,20.61079
3.723769008,96.27482607,15.515652,20.595039
3.689655406,96.96687519,15.640037,20.577126
3.702822059,97.63183989,15.766564,20.55699
3.691450859,98.26878667,15.895289,20.534573
3.679481174,98.87677621,16.026274,20.509819
3.675291784,99.45490398,16.159561,20.48267
3.64656454,100.0024075,16.295212,20.45306
3.653147867,100.5185603,16.433287,20.420937
3.629806981,101.0026292,16.573843,20.386234
3.571754009,101.4537712,16.716938,20.348892
3.475398044,101.871057,16.862633,20.308849
3.438292021,102.2535557,17.010981,20.266045
3.439488989,102.6004366,17.162052,20.220413
3.443678379,102.9110988,17.315893,20.1719
3.481382887,103.1849736,17.472565,20.12044
3.452655643,103.4214804,17.632128,20.065973
3.399989029,103.6199487,17.794641,20.00844
3.396996607,103.7796667,17.960163,19.947773
3.396398123,103.8999253,18.128752,19.883923
3.395799639,103.9801513,18.300461,19.816824
3.404178418,104.019953,18.475361,19.746414
3.40717084,104.0189518,18.653486,19.672649
3.428117788,103.9767743,18.834898,19.595469
3.332360308,103.8930702,19.019655,19.514812
3.322186076,103.7674949,19.207808,19.43063
3.321587592,103.5997126,19.399406,19.342873
3.247974029,103.389528,19.5945,19.251492
3.160595328,103.1368578,19.793137,19.156433
3.173761982,102.8416219,19.995363,19.057659
3.178549856,102.5037766,20.201235,18.95512
3.076209049,102.1233625,20.410772,18.84878
3.039103025,101.7004321,20.624033,18.738598
3.007981844,101.2350529,20.841045,18.624546
3.004390939,100.7274073,21.061852,18.506582
2.958906136,100.1777319,21.286488,18.38468
2.949928872,99.58626453,21.514982,18.258818
2.762603302,98.95328742,21.747364,18.128973
2.753626038,98.27914289,21.983677,17.995115
2.734474542,97.56417764,22.223917,17.857248
2.906838006,96.80877504,22.468119,17.715357
2.980451569,96.01347418,22.716303,17.569431
2.936762219,95.17885558,22.968485,17.41947
2.958307652,94.30550555,23.224678,17.265476
2.958307652,93.39410491,23.484888,17.10746
2.94394403,92.44541157,23.749132,16.945431
2.930178892,91.4601857,24.017408,16.779411
2.879906215,90.43919479,24.28973,16.609411
2.876913793,89.38322381,24.566072,16.435478
2.885891057,88.2930603,24.846441,16.257633
2.899656195,87.16950735,25.130833,16.075926
2.875716825,86.01349293,25.41923,15.890391
2.875118341,84.82600489,25.71162,15.70108
2.864345624,83.60803275,26.007986,15.508053
2.862550171,82.36062547,26.308308,15.311373
2.898459226,81.08491464,26.612577,15.111091
2.991224285,79.78203795,26.920734,14.907307
3.040299994,78.45316088,27.232763,14.700092
3.038504541,77.09956953,27.548628,14.489528
3.104936293,75.72258272,27.868294,14.275707
3.167178655,74.32352636,28.191715,14.05873
3.195905899,72.90384556,28.51885,13.838702
3.344329993,71.46508433,28.849655,13.615726
3.408367808,70.00878978,29.184086,13.389912
3.411360229,68.53654349,29.52206,13.161404
3.413155682,67.05001076,29.863537,12.930314
3.458042001,65.55086932,30.208452,12.696778
3.63818576,64.04082349,30.55674,12.460935
4.203753377,62.52179499,30.908333,12.222926
4.558056054,60.99581185,31.263163,11.982899
4.760942215,59.46490328,31.621151,11.741012
6.169175657,57.93112099,31.982216,11.497422
7.029796009,56.39654856,32.346302,11.252278
7.06929597,54.86327196,32.71328,11.005777
7.399659276,53.33340043,33.083084,10.75808
7.521151579,51.80914626,33.455616,10.509358
7.575015162,50.29275028,33.830791,10.259794
7.582196973,48.78644769,34.2085,10.009574
7.597159079,47.29237691,34.588654,9.758886
7.57621213,45.81259458,34.971138,9.507919
7.579204552,44.34915485,35.355865,9.256858
7.581000004,42.9041384,35.742691,9.005924
7.5887803,41.47969163,36.131519,8.755301
7.588181815,40.0779709,36.52224,8.505193
7.611522701,38.7010891,36.914722,8.255801
7.643840851,37.35079537,37.308853,8.007332
7.733015004,36.02865757,37.70451,7.759989
7.750969532,34.73624072,38.101559,7.513979
7.783287681,33.47503522,38.499882,7.269511
7.781492228,32.24642378,38.899357,7.026779
7.864083055,31.05178079,39.29982,6.786013
7.946673882,29.89241024,39.701149,6.547408
8.102878271,28.76929798,40.103218,6.31117
8.12382522,27.68334,40.505875,6.077501
8.183673645,26.63541172,40.908993,5.846604
8.653483782,25.62602288,41.31242,5.61868
8.765998821,24.65536881,41.716019,5.393928
8.783953348,23.72363432,42.119667,5.172528
8.792930612,22.83088312,42.523178,4.954696
8.818066951,21.97687338,42.926426,4.740612
8.819862404,21.16131582,43.329273,4.530457
8.849786616,20.3838623,43.731567,4.324409
8.866544175,19.6436608,44.133163,4.122649
8.932975927,18.93960354,44.533916,3.925344
9.020354628,18.27057226,44.933681,3.732658
9.099354549,17.63501027,45.332336,3.544743
9.138256025,17.03071718,45.729691,3.361773
9.265134686,16.45544125,46.125622,3.183882
9.285483151,15.90693072,46.519985,3.011209
9.296854351,15.38293385,46.912647,2.843893
9.650558544,14.88119888,47.303467,2.682056
9.947406732,14.39947407,47.692295,2.525815
9.988103661,13.93550765,48.079002,2.375282
10.47945923,13.4870479,48.463463,2.230563
10.96961783,13.05184305,48.845547,2.09174
11.10607224,12.62764135,49.225098,1.958912
11.48910216,12.21219106,49.601997,1.832154
12.38204066,11.80324042,49.97612,1.711531
12.4035861,11.39853769,50.347351,1.597097
12.44009364,10.99583111,50.715565,1.488909
12.49276025,10.59286894,51.080635,1.387005
12.53106324,10.18739942,51.442463,1.291412
12.55380564,9.777170811,51.800941,1.202147
12.59749499,9.359931354,52.15593,1.119236
12.6124571,8.933429304,52.507336,1.042671
12.67350249,8.495412909,52.855064,0.972443
12.76566907,8.043630419,53.199013,0.90854
12.84407051,7.575830085,53.539085,0.850933
13.0116461,7.089760158,53.875183,0.799581
13.02421427,6.583168886,54.207222,0.754443
13.03079759,6.053804519,54.53511,0.715466
13.02780517,5.499415309,54.858791,0.682578
13.04037334,4.917749506,55.178143,0.65571
13.05832787,4.306555358,55.493107,0.634784
13.06251726,3.663581117,55.803616,0.619706
13.09962328,2.986575032,56.1096,0.610374
13.17563078,2.273285354,56.410988,0.606687
13.224108,1.521460332,56.707722,0.608532
13.23308527,0.728848217,56.999748,0.615782
13.23667617,0,57.287014,0.628314
13.53292588,0,57.569447,0.645994
13.59397127,0,57.847008,0.668678
13.56045615,0,58.119659,0.69622
13.566441,0,58.387348,0.728472
13.56045615,0,58.650047,0.765276
13.55746373,0,58.907715,0.80647
13.5586607,0,59.160324,0.851891
13.55985767,0,59.407856,0.901377
13.56045615,0,59.650246,0.954748
13.56404706,0,59.887508,1.011837
13.58499401,0,60.119602,1.072469
13.60833489,0,60.346523,1.136468
13.71666054,0,60.568249,1.203658
13.74957718,0,60.784775,1.273863
13.81361499,0,60.996086,1.346905
13.89381188,0,61.202175,1.42261
13.95485728,0,61.403061,1.500807
13.95425879,0,61.598705,1.581313
13.97400877,0,61.789127,1.663964
13.96622848,0,61.974331,1.748591
13.96981938,0,62.154316,1.835026
13.95844818,0,62.32909,1.923108
13.96024363,0,62.498669,2.012681
13.96503151,0,62.663063,2.103587
13.94707698,0,62.822285,2.19568
13.95425879,0,62.976334,2.288806
13.99375875,0,63.125237,2.38283
14.079342,0,63.269012,2.47761
14.1134556,0,63.407681,2.57302
14.08712229,0,63.54126,2.668934
13.94707698,0,63.669769,2.765228
13.88423613,0,63.793232,2.861789
13.89022098,0,63.911674,2.958511
13.36714574,0,64.025124,3.055292
13.4407593,0,64.133591,3.152023
13.6765621,0,64.237106,3.248623
13.51616832,0,64.335701,3.345003
13.54010769,0,64.429413,3.441082
13.53651678,0,64.51825,3.536785
13.5586607,0,64.602257,3.632049
13.55028192,0,64.681442,3.726804
13.58619098,0,64.755867,3.820999
13.59756218,0,64.825523,3.914576
13.60235005,0,64.890465,4.007489
13.59875915,0,64.950706,4.099694
13.66638787,0,65.006294,4.191156
13.66159999,0,65.057251,4.281845
13.6574106,0,65.1036,4.371729
13.61252428,0,65.145386,4.460784
13.6119258,0,65.182632,4.548998
13.60653944,0,65.21537,4.636344
13.68913027,0,65.243622,4.722812
13.66459241,0,65.267426,4.808395
13.64185001,0,65.286804,4.893088
13.54788798,0,65.301796,4.976887
13.53950921,0,65.312431,5.059791
13.50838802,0,65.318733,5.141803
13.23488072,0,65.32074,5.222929
13.25882009,0,65.318466,5.303175
13.26061554,0,65.311958,5.382544
13.26899432,0,65.301231,5.461051
13.49881228,0,65.286324,5.538703
13.57661523,0,65.267258,5.615515
13.70349389,0,65.244064,5.6915
13.74179688,0,65.216774,5.766671
13.70289541,0,65.18541,5.841042
13.67177422,0,65.150009,5.914631
13.63885759,0,65.110588,5.987447
13.64424395,0,65.067169,6.059506
13.66938029,0,65.019798,6.130826
13.70528934,0,64.968491,6.201419
13.78788017,0,64.913284,6.271302
13.57661523,0,64.854187,6.340486
13.38510027,0,64.791237,6.408984
13.37731997,0,64.724464,6.47681
13.2127368,0,64.653877,6.54398
12.85424474,0,64.579521,6.610496
12.86800988,0,64.501419,6.676371
12.57475259,0,64.419586,6.741616
11.65009443,0,64.334053,6.806237
11.76620037,0,64.244843,6.870241
11.73507919,0,64.151985,6.933634
11.72729889,0,64.055496,6.99642
11.83981393,0,63.955399,7.058607
11.89547297,0,63.85173,7.120188
11.86135937,0,63.744499,7.181169
11.90265478,0,63.633736,7.24155
11.85657149,0,63.519463,7.301327
11.75662462,0,63.401703,7.360501
11.68241257,0,63.280476,7.419065
11.52261728,0,63.155796,7.477015
11.56810208,0,63.027687,7.534349
11.70276104,0,62.896179,7.591053
11.72670041,0,62.761288,7.647121
11.77098824,0,62.623028,7.702545
11.75542765,0,62.481426,7.757315
12.05167736,0,62.336498,7.811419
12.22224537,0,62.188255,7.864846
12.24139687,0,62.036728,7.917583
12.20069994,0,61.881924,7.969616
12.27072259,0,61.723854,8.020936
12.32398769,0,61.562553,8.071521
12.18633631,0,61.398026,8.121358
12.14444242,0,61.230293,8.170433
12.17077572,0,61.059364,8.218729
12.255162,0,60.885258,8.266229
12.27551047,0,60.707985,8.312915
12.27670744,0,60.527569,8.358772
12.27670744,0,60.343998,8.403785
12.30423771,0,60.157314,8.447929
12.35869978,0,59.967522,8.491195
12.35750281,0,59.774635,8.533558
12.42872244,0,59.578663,8.575006
12.43470728,0,59.379623,8.615519
12.41076791,0,59.177521,8.65508
12.37605582,0,58.972378,8.693672
12.30423771,0,58.764187,8.731282
12.22344234,0,58.552986,8.767886
12.13726061,0,58.338779,8.803475
12.13067728,0,58.121582,8.83803
12.08638944,0,57.901398,8.871536
12.07980612,0,57.678253,8.903981
12.07621521,0,57.452145,8.935349
12.07202582,0,57.223099,8.965627
12.13426818,0,56.991127,8.994804
12.1641924,0,56.756233,9.02287
12.2210484,0,56.518459,9.049809
12.21027568,0,56.277794,9.075617
12.17197269,0,56.034264,9.10028
12.0768137,0,55.787888,9.123793
12.02055618,0,55.538677,9.146149
11.99422287,0,55.286655,9.167342
11.97806379,0,55.031837,9.187366
11.90863962,0,54.774227,9.206221
11.87093511,0,54.513874,9.2239
11.88888964,0,54.25079,9.240402
11.30596598,0,53.984985,9.25573
10.97620116,0,53.716496,9.269883
10.97739813,0,53.445335,9.282863
10.95106482,0,53.171528,9.294674
10.92353454,0,52.895103,9.30532
10.93370878,0,52.616085,9.314807
10.98936781,0,52.334484,9.323142
10.9672239,0,52.050354,9.330332
11.01689809,0,51.763714,9.336386
11.04442836,0,51.474594,9.341314
11.04801927,0,51.183014,9.345131
11.0049284,0,50.889019,9.347844
11.03126171,0,50.592632,9.349467
11.07554954,0,50.293888,9.350019
11.4687537,0,49.992798,9.349507
11.49748094,0,49.689434,9.347953
11.48192035,0,49.383808,9.345371
11.38257197,0,49.075966,9.341779
11.36641289,0,48.765934,9.337193
11.33589019,0,48.453747,9.331634
11.34067807,0,48.13945,9.325118
11.36521592,0,47.823071,9.317668
11.37060228,0,47.504639,9.309299
11.43643555,0,47.184216,9.300035
11.33888261,0,46.861832,9.289897
11.4914961,0,46.537521,9.278901
11.49448852,0,46.211319,9.267071
11.24791301,0,45.883274,9.254427
11.16232976,0,45.553417,9.240987
10.98338297,0,45.221786,9.226775
11.0013375,0,44.888435,9.211811
11.02467838,0,44.553371,9.196114
10.99654962,0,44.216679,9.179706
11.00851931,0,43.878376,9.162606
11.00073901,0,43.538498,9.144835
10.87864823,0,43.197094,9.126411
10.82239071,0,42.854198,9.107354
10.72304232,0,42.50985,9.087682
10.7008984,0,42.164097,9.067415
10.8720649,0,41.816948,9.046569
11.05340563,0,41.468487,9.025164
10.80862557,0,41.118736,9.003218
10.74458775,0,40.767731,8.980743
10.57162581,0,40.415516,8.957761
10.57102732,0,40.062122,8.934285
10.61890606,0,39.707592,8.910332
10.55845915,0,39.351967,8.885917
10.57342126,0,38.995281,8.861054
10.56743642,0,38.637554,8.835758
10.39447447,0,38.27887,8.810043
10.30829274,0,37.919235,8.783925
10.30410335,0,37.558693,8.757414
10.23946705,0,37.197289,8.730526
10.22869433,0,36.835045,8.703273
10.23048978,0,36.472012,8.675667
10.25383067,0,36.108219,8.647721
10.22809585,0,35.74369,8.619446
10.17483075,0,35.378498,8.590857
10.09642931,0,35.012661,8.561964
10.10480809,0,34.646217,8.532781
10.04615663,0,34.279194,8.503319
10.17782317,0,33.911644,8.473589
9.848058346,0,33.543594,8.443604
9.58532376,0,33.175083,8.413377
9.460839036,0,32.806133,8.382917
9.447672383,0,32.43681,8.352241
9.360892166,0,32.067146,8.32136
9.299846773,0,31.697168,8.290284
9.080203053,0,31.326918,8.259028
9.16997569,0,30.956432,8.227606
9.137059056,0,30.585752,8.19603
9.064043978,0,30.214911,8.164315
9.089778801,0,29.843948,8.132473
9.105937875,0,29.472889,8.100516
9.118506045,0,29.101805,8.068464
9.090377285,0,28.730721,8.03633
9.014369785,0,28.359673,8.004128
9.022748565,0,27.988703,7.971871
8.896468388,0,27.617851,7.939578
8.850983585,0,27.24716,7.907263
8.743256419,0,26.876652,7.874939
8.842006321,0,26.50642,7.842629
8.851582069,0,26.13644,7.81034
8.861157817,0,25.766823,7.778097
8.967089529,0,25.397533,7.745909
8.966491045,0,25.028666,7.713793
8.960506202,0,24.660288,7.681771
8.960506202,0,24.292376,7.649852
8.976665277,0,23.925047,7.61806
9.002998584,0,23.558275,7.586402
8.962900139,0,23.192177,7.554904
9.110725749,0,22.826725,7.523572
10.33462604,0,22.462042,7.49243
10.41781535,0,22.098099,7.461486
10.68414084,0,21.734982,7.43076
10.76314077,0,21.372778,7.400269
10.79725437,0,21.011461,7.370022
10.82777706,0,20.651155,7.340039
10.87445884,0,20.291836,7.310328
10.94208756,0,19.93363,7.280911
10.98398145,0,19.576517,7.251793
11.02886777,0,19.220619,7.222995
11.08751923,0,18.865919,7.194523
11.10547376,0,18.512512,7.166393
11.10307982,0,18.160484,7.13862
11.12223132,0,17.809824,7.111212
11.12881464,0,17.460657,7.084184
11.14497372,0,17.112972,7.057541
11.10667073,0,16.766905,7.031303
11.13839039,0,16.42244,7.005472
11.08273136,0,16.07971,6.980067
11.21978425,0,15.738711,6.955091
11.34127655,0,15.399543,6.930557
11.39514013,0,15.062306,6.906479
11.36102653,0,14.726998,6.88286
11.39095074,0,14.393759,6.859716
11.0432314,0,14.062589,6.837051
11.04861775,0,13.73363,6.814881
11.08332984,0,13.406886,6.793209
11.22576909,0,13.082467,6.772048
11.22756454,0,12.760486,6.75141
11.26048118,0,12.44095,6.7313
11.26048118,0,12.124007,6.711732
11.23115545,0,11.809674,6.692714
11.27544328,0,11.498099,6.674257
11.19105701,0,11.189301,6.65637
11.1683146,0,10.883429,6.639066
10.99176175,0,10.580509,6.622352
10.97201177,0,10.280662,6.60624
10.93909514,0,9.984007,6.590744
10.9480724,0,9.690575,6.57587
10.96064057,0,9.400518,6.561632
10.90917092,0,9.11387,6.548039
11.12462525,0,8.830786,6.535104
11.31554173,0,8.551298,6.522835
11.33529171,0,8.275565,6.511245
11.31015537,0,8.003624,6.500343
11.31494324,0,7.735598,6.490139
11.44481433,0,7.471613,6.480644
11.59084448,0,7.211711,6.471867
12.05526826,0,6.956042,6.463815
11.87392754,0,6.704648,6.456496
11.7231095,0,6.457678,6.449919
11.75482917,0,6.215174,6.444087
11.77577612,0,5.977257,6.439007
11.77338218,0,5.744042,6.434684
11.77098824,0,5.515573,6.43112
11.74405645,0,5.291984,6.428315
11.68420803,0,5.073318,6.426271
11.70874588,0,4.859707,6.424985
11.69737468,0,4.651186,6.424453
11.72251102,0,4.447878,6.424669
11.78834429,0,4.249823,6.425629
11.85357907,0,4.057112,6.427319
11.93078354,0,3.869836,6.429729
12.00858649,0,3.688026,6.432844
12.07860915,0,3.511782,6.436647
12.95239616,0,3.341125,6.441119
13.06730513,0,3.176148,6.446238
13.06311574,0,3.01687,6.45198
13.08466117,0,2.863366,6.458314
13.08705511,0,2.715647,6.46521
13.22111558,0,2.573769,6.472638
13.15109293,0,2.437776,6.480556
13.17024442,0,2.307663,6.488925
13.17084291,0,2.183482,6.497703
13.16665352,0,2.065224,6.506844
13.16904745,0,1.952918,6.516295
13.18460804,0,1.846548,6.526007
13.21213832,0,1.746127,6.535923
13.33363062,0,1.651653,6.545983
13.3078958,0,1.563093,6.556124
13.31807003,0,1.480448,6.566282
13.48923653,0,1.403675,6.576391
14.50247036,0,1.332756,6.586375
16.16685507,0,1.267641,6.596165
16.40924119,0,1.208303,6.605682
16.74020298,0,1.154676,6.61485
16.82937713,0,1.106713,6.623587
16.8838392,0,1.06436,6.63181
17.07415719,0,1.02754,6.639435
17.13041471,0,0.996189,6.646374
17.1268238,0,0.970225,6.652543
17.11066473,0,0.949574,6.657851
17.12622532,0,0.934141,6.66221
17.12263441,0,0.923839,6.665529
17.08612688,0,0.918575,6.667718
17.10886928,0,0.918248,6.668689
17.15914195,0,0.922752,6.668352
17.24173278,0,0.931985,6.666615
17.34826298,0,0.945835,6.663395
17.3739978,0,0.964189,6.658606
17.38656597,0,0.986931,6.652162
17.86116398,0,1.013947,6.643981
17.55952792,0,1.045112,6.633988
17.77318679,0,1.080312,6.622105
17.65348994,0,1.119421,6.608259
17.77977012,0,1.162314,6.592386
17.85757307,0,1.208874,6.57442
18.27651205,0,1.258969,6.554302
18.50932242,0,1.312487,6.531977
18.74931461,0,1.369295,6.507403
19.81222264,0,1.429284,6.480533
20.23714646,0,1.492328,6.45133
20.64471423,0,1.558304,6.419775
20.74286565,0,1.627109,6.385839
20.995426,0,1.698614,6.349509
21.04569868,0,1.772726,6.310776
21.07562289,0,1.849323,6.269654
21.05407746,0,1.928314,6.226139
21.04450171,0,2.009583,6.180255
21.24499393,0,2.093052,6.132029
21.451471,0,2.178619,6.081498
25.99875434,-4.246331425,1.866515,7.341425
25.96344377,-4.532414093,1.998656,7.30363
26.05680731,-4.858188856,2.130756,7.262406
25.98020133,-5.226847472,2.26274,7.217768
25.8862393,-5.6415817,2.394531,7.169734
25.88743627,-6.105583299,2.526067,7.118336
25.8748681,-6.622044028,2.657297,7.063622
25.72584552,-7.194155646,2.788175,7.005642
25.35957316,-7.824839407,2.918654,6.944453
25.14471731,-8.515053916,3.048706,6.880128
25.08845979,-9.264892206,3.178307,6.812752
24.18654403,-10.07443989,3.307435,6.74241
23.66646121,-10.94309218,3.436074,6.669193
23.61977944,-11.86874065,3.564221,6.593216
23.62456731,-12.84907898,3.691876,6.514595
23.62815822,-13.88173189,3.819039,6.433443
23.6251658,-14.96333736,3.945719,6.349893
23.62815822,-16.08979647,4.07193,6.264083
23.62696125,-17.25699261,4.19769,6.176155
23.61499157,-18.46073853,4.323015,6.086253
23.6137946,-19.69657621,4.447931,5.994533
23.60421885,-20.95998285,4.572462,5.901155
23.33011306,-22.24644212,4.696636,5.806279
23.17151474,-23.55166612,4.820479,5.710069
22.13015214,-24.87165049,4.944022,5.612697
22.0254174,-26.20240855,5.067295,5.514333
21.84826606,-27.54006986,5.190327,5.41515
21.56817543,-28.88156955,5.313148,5.315321
21.56219059,-30.22418392,5.435781,5.215022
21.58972086,-31.56519275,5.558259,5.114428
21.61844811,-32.90224489,5.680603,5.013711
21.55740271,-34.23376137,5.802833,4.913045
21.38863015,-35.55826018,5.924972,4.8126
21.89853874,-36.87430105,6.047036,4.712546
22.07209917,-38.18100843,6.169037,4.613049
22.33842466,-39.47791277,6.290985,4.514266
22.33243982,-40.76455345,6.412886,4.416361
22.34680344,-42.04055548,6.534744,4.319489
22.24386415,-43.30585818,6.656553,4.223799
22.11040216,-44.56047295,6.778307,4.129432
22.12835669,-45.80441242,6.899998,4.036533
22.08107643,-47.03772975,7.02161,3.945236
22.08287188,-48.26052657,7.14312,3.855666
22.0367886,-49.47290733,7.264506,3.767944
22.03798557,-50.67494487,7.385741,3.682193
22.03918253,-51.86650244,7.506788,3.598516
22.03379618,-53.04735812,7.627613,3.517014
22.0290083,-54.21728921,7.748171,3.437787
21.99190228,-55.37600058,7.868421,3.360926
21.97873563,-56.52305148,7.988311,3.286508
21.964372,-57.65798373,8.107786,3.214607
21.3832438,-58.78034491,8.226794,3.145299
20.7368808,-59.88975646,8.345274,3.078641
20.43644171,-60.98589098,8.463163,3.014685
19.84454079,-62.06842208,8.580397,2.953481
19.78229842,-63.13704663,8.696908,2.895074
19.70509396,-64.19154324,8.812628,2.839493
19.55726835,-65.2317085,8.927485,2.786764
19.02940524,-66.25734506,9.041409,2.736916
19.01264768,-67.26843871,9.154325,2.689963
18.99828406,-68.26518605,9.266159,2.645911
18.99828406,-69.24779537,9.376836,2.604768
18.82711756,-70.21649506,9.486284,2.566536
18.24958026,-71.17164098,9.594428,2.531205
17.89946697,-72.11363869,9.701196,2.498764
17.66127024,-73.04289345,9.806513,2.4692
17.2752479,-73.95975799,9.910309,2.442493
16.82997562,-74.8644836,10.012514,2.418617
16.74858176,-75.75730996,10.113061,2.397545
16.42061239,-76.63847921,10.211884,2.379248
16.27278678,-77.50826329,10.308915,2.363689
16.24106711,-78.36695395,10.404099,2.350829
16.23149136,-79.21484331,10.497374,2.340628
16.26201406,-80.05217408,10.588682,2.333045
16.05015064,-80.87902256,10.677976,2.32803
15.82571904,-81.69543007,10.765204,2.325537
15.74552215,-82.50143486,10.850319,2.325517
15.22244692,-83.29698978,10.933278,2.327918
15.13387125,-84.08195297,11.014047,2.332685
15.1548182,-84.85617768,11.092585,2.339764
15.14105306,-85.61951366,11.168861,2.3491
15.16319698,-86.37178979,11.242849,2.360636
15.37087101,-87.11282711,11.314528,2.374312
15.46603001,-87.84244604,11.383873,2.390072
15.54921932,-88.56040154,11.450868,2.407857
15.64138589,-89.26632707,11.515506,2.427606
15.79160544,-89.95984283,11.577774,2.449261
15.52049208,-90.64057458,11.637666,2.472762
15.42353763,-91.30821174,11.695184,2.498049
15.4738103,-91.96248456,11.750333,2.525061
15.4510679,-92.60312396,11.803112,2.553741
15.29486351,-93.22983246,11.853537,2.584028
15.30443926,-93.84222095,11.901618,2.615863
15.35949981,-94.4398819,11.947373,2.649188
14.89866694,-95.02240826,11.990823,2.683944
13.79865289,-95.58940647,12.031989,2.720075
13.69272117,-96.14049729,12.070897,2.757525
13.60294854,-96.67530224,12.107579,2.796237
13.75077415,-97.19343362,12.142062,2.836156
13.40544873,-97.6944508,12.174384,2.877228
13.34440334,-98.17789406,12.204582,2.919401
13.37013816,-98.64330402,12.232693,2.962621
13.33662304,-99.09025103,12.258759,3.006838
13.35218363,-99.51835858,12.282826,3.052002
13.38450178,-99.92725568,12.304937,3.098063
13.38091088,-100.3165788,12.325142,3.144974
12.75369938,-100.6860462,12.343488,3.192688
12.65494948,-101.0354267,12.360029,3.24116
12.43710122,-101.3644895,12.374816,3.290346
12.41974517,-101.6729981,12.3879,3.340202
12.21805598,-101.9606961,12.399341,3.390688
12.20728326,-102.2273238,12.409192,3.441764
12.20548781,-102.472625,12.417509,3.493391
12.21087417,-102.6964301,12.424351,3.545531
12.20010145,-102.8986591,12.429776,3.59815
12.12529092,-103.079236,12.433843,3.651211
12.12289698,-103.2380993,12.436609,3.704682
12.17795753,-103.3752676,12.438135,3.75853
12.20429084,-103.4907868,12.438478,3.812727
12.20548781,-103.584704,12.437702,3.86724
12.20249539,-103.6571195,12.435861,3.922045
12.17017724,-103.7082264,12.433015,3.977114
12.23720748,-103.7382266,12.429223,4.032423
12.32997253,-103.7473267,12.424541,4.087946
12.37246492,-103.7357823,12.419026,4.143663
12.71838881,-103.7038777,12.412735,4.199553
12.76028271,-103.6518977,12.405722,4.255595
12.77285088,-103.5801569,12.398042,4.311769
12.8823735,-103.4890579,12.389749,4.368058
12.89015379,-103.37902,12.380891,4.424446
12.863222,-103.2504645,12.371521,4.480917
12.85663867,-103.103863,12.361689,4.537457
12.83688869,-102.9397371,12.351439,4.594052
12.8404796,-102.7586107,12.340819,4.650691
12.94581283,-102.5610158,12.329874,4.707359
13.07688088,-102.3475297,12.318645,4.764049
13.11578236,-102.1187444,12.307173,4.820749
13.11278993,-101.8752516,12.295496,4.87745
13.0685021,-101.6176193,12.283652,4.934141
13.12475962,-101.3463758,12.271674,4.990818
13.06191877,-101.0620459,12.259598,5.047471
12.04868494,-100.7651541,12.247454,5.104093
11.69079135,-100.4562209,12.235271,5.160679
11.23115545,-100.1357649,12.223075,5.217222
11.22756454,-99.80430454,12.210893,5.273716
11.20482214,-99.46235568,12.198745,5.330157
11.23534484,-99.11042709,12.186655,5.386539
11.25270088,-98.74902622,12.174641,5.442859
11.31195082,-98.3786545,12.162718,5.499112
11.25629179,-97.99968574,12.150903,5.555293
11.19165549,-97.61237196,12.139209,5.611398
11.17669338,-97.21696035,12.127645,5.667424
11.18088277,-96.81371375,12.116224,5.723366
11.17549641,-96.40297446,12.10495,5.779222
11.18028429,-95.98510995,12.093827,5.834988
11.20781456,-95.56048643,12.082865,5.890659
11.21679183,-95.12938974,12.072062,5.946233
11.21918576,-94.69197782,12.061417,6.001705
11.21978425,-94.24839725,12.050932,6.057074
11.23893575,-93.79879705,12.040604,6.112336
11.26766299,-93.3433495,12.030427,6.167486
11.26586754,-92.88223961,12.020398,6.222522
11.2634736,-92.41565254,12.010512,6.27744
11.26407208,-91.94378937,12.000757,6.332237
11.2826251,-91.46689451,11.991127,6.386908
11.29938265,-90.98521971,11.981611,6.441452
11.44002645,-90.49901425,11.9722,6.495863
11.45977643,-90.00847855,11.962882,6.550139
11.4268598,-89.51376812,11.953641,6.604277
11.46695824,-89.01503682,11.944468,6.658273
11.49688246,-88.51246868,11.935345,6.712124
11.53458696,-88.00639448,11.92626,6.765826
11.62017021,-87.49718949,11.917197,6.819376
11.7195186,-86.98522794,11.908142,6.872771
11.7195186,-86.47082178,11.899077,6.926007
11.71592769,-85.9541877,11.889988,6.979081
11.70994285,-85.43553432,11.880857,7.031992
11.74764736,-84.91507238,11.871669,7.084735
11.75303372,-84.39303152,11.862405,7.137308
11.74824584,-83.86965132,11.853047,7.189707
11.74645039,-83.34517152,11.843583,7.241932
11.61358689,-82.81984231,11.833994,7.293979
11.52142031,-82.29394136,11.824264,7.345846
11.51483698,-81.76775077,11.814375,7.397531
11.46456431,-81.24154718,11.804312,7.449033
11.43284464,-80.71550531,11.79406,7.50035
11.60042023,-80.18970967,11.783603,7.551482
11.79073822,-79.66424166,11.772926,7.602427
11.84819271,-79.139173,11.762015,7.653182
11.81348063,-78.6145303,11.750855,7.703749
11.84280635,-78.09032707,11.739434,7.754127
12.08100309,-77.56657724,11.727738,7.804314
12.0121774,-77.043317,11.715755,7.854313
11.86554876,-76.52061539,11.703474,7.904124
11.68720045,-75.99854405,11.690883,7.953746
11.67463228,-75.47716279,11.677973,8.003181
11.58246571,-74.9564303,11.664732,8.052429
11.46276885,-74.43625397,11.651154,8.101494
11.45439008,-73.91654075,11.637228,8.150377
11.45678401,-73.39719231,11.622948,8.199079
11.44900372,-72.87809699,11.608309,8.247602
11.35683714,-72.3591411,11.593305,8.295947
11.3622235,-71.84020907,11.577929,8.34412
11.33289777,-71.32115269,11.562179,8.392122
11.40890527,-70.80179595,11.546049,8.439959
11.19165549,-70.28196196,11.529541,8.48763
10.71167112,-69.76148371,11.512649,8.535142
10.65361815,-69.24023841,11.495375,8.582499
10.43457291,-68.71811556,11.477716,8.629701
10.25143673,-68.19500469,11.459678,8.676757
10.17842165,-67.67079718,11.441257,8.723668
10.14490653,-67.14538697,11.422458,8.770439
10.14011866,-66.61866822,11.403284,8.817076
10.20894435,-66.0905365,11.383737,8.863583
10.26819429,-65.56089884,11.363822,8.909964
10.59616366,-65.02966787,11.343545,8.956223
10.63027726,-64.49675628,11.322913,9.002368
10.65062573,-63.96208336,11.301929,9.0484
10.70209537,-63.42558424,11.280602,9.094326
10.71825445,-62.88719641,11.258942,9.140152
10.73201958,-62.34686022,11.236949,9.185884
10.74877714,-61.80456282,11.214639,9.231522
10.7655347,-61.26032983,11.192019,9.277073
10.73800443,-60.71418803,11.169096,9.322543
10.72304232,-60.16618535,11.145882,9.367935
10.71765596,-59.61646022,11.122386,9.413253
10.69970144,-59.06517519,11.098619,9.458503
10.70448931,-58.51249173,11.074591,9.503686
10.72603474,-57.95852519,11.050313,9.54881
10.72723171,-57.40332789,11.025797,9.593874
10.59736063,-56.84694765,11.001052,9.638886
10.52195161,-56.28944992,10.976089,9.683847
10.44115624,-55.73103745,10.950923,9.72876
10.04017179,-55.17197732,10.925562,9.773627
10.0018688,-54.61253679,10.900018,9.818451
9.999474862,-54.05294402,10.874301,9.863234
9.856437126,-53.49333668,10.848424,9.907976
9.889952244,-52.93383965,10.822396,9.952681
10.07368691,-52.37457919,10.79623,9.997348
10.13353533,-51.81570284,10.769936,10.041978
10.13592927,-51.25737497,10.743523,10.086572
10.13592927,-50.69976039,10.717002,10.13113
10.01443697,-50.14302114,10.690384,10.175651
9.944414311,-49.58730777,10.663676,10.220133
9.907308287,-49.03276792,10.636889,10.264579
9.845664409,-48.47954846,10.610033,10.308983
9.830103819,-47.92776548,10.583115,10.353346
9.778035689,-47.37749464,10.556143,10.397666
9.772050846,-46.82880885,10.529126,10.441939
9.770255394,-46.28179026,10.502071,10.486164
9.846262894,-45.73658976,10.474986,10.530338
9.90072496,-45.19338914,10.447877,10.57446
10.4806562,-44.65236997,10.42075,10.618524
10.83136797,-44.11364074,10.393613,10.662525
10.84034523,-43.57714739,10.36647,10.706466
11.02288293,-43.04281402,10.339327,10.750339
11.31973112,-42.51057576,10.31219,10.794141
11.31973112,-41.98053077,10.285063,10.837872
11.33768565,-41.4529012,10.25795,10.881525
11.33469323,-40.92791236,10.230856,10.925098
11.31314779,-40.40573405,10.203786,10.96859
11.30417053,-39.88631893,10.176743,11.011994
11.30177659,-39.36956653,10.149728,11.055312
11.27783722,-38.85537955,10.122747,11.098539
11.29519326,-38.34377745,10.095805,11.141672
11.29160236,-37.83492734,10.068904,11.18471
11.29459478,-37.32900585,10.042046,11.227652
11.32392051,-36.82616586,10.015235,11.270498
11.30237508,-36.32639206,9.988476,11.313246
11.30716295,-35.82959646,9.961769,11.355896
11.30716295,-35.33569105,9.935119,11.398447
11.29998114,-34.84463504,9.908527,11.440902
11.27185238,-34.35648846,9.882,11.48326
11.32631445,-33.87132429,9.855539,11.525525
11.24551907,-33.38920869,9.829149,11.567696
11.30596598,-32.91011277,9.802833,11.609776
11.56331421,-32.43393801,9.776595,11.65177
11.62136718,-31.96058428,9.75044,11.693682
11.60700356,-31.48997226,9.72437,11.735512
11.59623084,-31.02210057,9.698394,11.77727
11.49987488,-30.55698612,9.672512,11.818958
11.42805677,-30.09464337,9.646734,11.860581
11.45199614,-29.63500432,9.621062,11.902146
11.46217037,-29.17790049,9.595506,11.943659
11.46516279,-28.72315732,9.570066,11.985126
11.42506435,-28.27061265,9.544756,12.026554
11.438231,-27.82018813,9.519577,12.06795
11.43882948,-27.37184022,9.49454,12.109324
11.438231,-26.92552541,9.469651,12.15068
11.44122342,-26.48119348,9.444921,12.192028
11.4268598,-26.03878027,9.420355,12.233376
11.43164767,-25.59821997,9.395963,12.274733
11.45498856,-25.15944935,9.371755,12.316106
11.45079917,-24.72243974,9.347739,12.357505
11.32511748,-24.28718677,9.323926,12.398938
11.32392051,-23.85368661,9.300327,12.440414
11.38017803,-23.42195117,9.276953,12.481939
11.50167033,-22.99204895,9.253815,12.523524
11.11923889,-22.56406112,9.230925,12.565176
11.03844352,-22.13806758,9.208292,12.606905
11.04622382,-21.71410797,9.185933,12.648716
11.05161017,-21.29217469,9.163857,12.690619
11.09589801,-20.87225747,9.142078,12.732623
11.11026163,-20.45436364,9.120609,12.774734
11.09350407,-20.03861466,9.099464,12.81696
11.10068588,-19.62517743,9.078657,12.859307
11.10607224,-19.21421847,9.0582,12.901782
11.09948891,-18.80584087,9.038108,12.944391
11.08512529,-18.40002267,9.018397,12.98714
11.11325405,-17.99672729,8.999081,13.030035
11.04382988,-17.59592823,8.980171,13.07308
11.0695647,-17.19772482,8.961686,13.116282
11.04083746,-16.80230182,8.943638,13.159646
11.22457212,-16.40984563,8.926044,13.203177
11.31135234,-16.0205097,8.908916,13.24688
11.29639023,-15.63433413,8.892269,13.290756
11.40591285,-15.25133469,8.87612,13.334808
11.47354157,-14.87152782,8.86048,13.379041
11.44660978,-14.49495041,8.845366,13.423457
11.43344313,-14.12166243,8.830791,13.46806
11.64291261,-13.75172508,8.816769,13.512849
11.70695043,-13.38519838,8.803312,13.557828
11.82724576,-13.02213515,8.790436,13.602997
11.49389004,-12.66258547,8.778151,13.648359
11.48610974,-12.30659937,8.766472,13.693914
11.46935218,-11.95422664,8.75541,13.739664
11.4190795,-11.60551652,8.744977,13.785606
11.39753407,-11.26051819,8.735185,13.831743
11.38317045,-10.91928155,8.726042,13.878075
11.35623866,-10.58186484,8.717562,13.924601
11.37419319,-10.24833179,8.709751,13.971317
11.37957954,-9.918746219,8.702621,14.018228
11.39334468,-9.593181161,8.696181,14.065327
11.35623866,-9.271740063,8.690437,14.112617
11.35444321,-8.954532623,8.685397,14.160092
11.37239773,-8.641666931,8.681069,14.207754
11.37179925,-8.333207663,8.677459,14.255601
11.5597233,-8.029172264,8.67457,14.303629
11.59922326,-7.729575796,8.672411,14.351837
11.61837476,-7.434435747,8.670985,14.400224
11.63094293,-7.143783963,8.670294,14.448785
11.63094293,-6.857657555,8.670344,14.497517
11.66924592,-6.576093312,8.671138,14.546418
11.71532921,-6.299095921,8.672675,14.595486
11.93018505,-6.026611589,8.674957,14.644716
11.96370017,-5.758580314,8.677989,14.694108
11.87632147,-5.494939633,8.681767,14.743654
11.94395019,-5.235599467,8.686294,14.793357
12.07382127,-4.980452373,8.691568,14.843207
12.08399551,-4.729390627,8.697588,14.893206
12.06185159,-4.482280117,8.704353,14.943348
11.96549563,-4.238903375,8.711864,14.993632
11.96549563,-3.999026507,8.720113,15.044051
11.9589123,-3.762416272,8.729101,15.094604
11.94813958,-3.52885568,8.738826,15.145287
11.93796535,-3.298144779,8.749283,15.196095
11.93736687,-3.070084421,8.760468,15.247026
11.94993504,-2.844473981,8.77238,15.298078
11.89487448,-2.62110446,8.785012,15.34924
11.85417755,-2.399763916,8.798361,15.400519
11.30357204,-2.180239645,8.812423,15.451902
10.99714811,-1.962254125,8.827192,15.503391
10.96961783,-1.745416266,8.842665,15.554981
10.75835289,-1.529323501,8.858834,15.606668
10.4387623,-1.313581722,8.875696,15.658444
10.44594411,-1.09788707,8.893246,15.710309
10.47586833,-0.881990286,8.911477,15.762258
10.47826226,-0.665642842,8.930387,15.814285
10.48484559,-0.44854869,8.949964,15.866387
10.4806562,-0.230267885,8.970207,15.918561
10.49920921,-0.010333345,8.991111,15.970798
10.57401974,0.211717881,9.012667,16.023096
10.57761065,0.43625213,9.03487,16.075451
10.66917874,0.66353821,9.057715,16.127855
10.66798177,0.89384062,9.081196,16.180304
10.63326968,1.127445384,9.105307,16.232794
10.63446665,1.364755223,9.130041,16.285316
10.63207271,1.606212216,9.155394,16.337868
10.63566362,1.85225804,9.181359,16.39044
10.71107264,2.103301608,9.207932,16.443027
10.72783019,2.359696621,9.235106,16.495621
10.63686059,2.621791472,9.262874,16.548222
10.59197427,2.889933981,9.291233,16.600815
10.45851228,3.164466147,9.320177,16.653395
10.22031555,3.445726582,9.349701,16.705957
10.08326266,3.734053862,9.379803,16.758497
10.07368691,4.02979322,9.410472,16.810999
10.08625508,4.333309207,9.44171,16.863462
10.07069449,4.644969866,9.473506,16.915873
10.0473536,4.965140836,9.505861,16.968229
10.02161878,5.294135255,9.53877,17.020519
10.01383848,5.632215212,9.57223,17.072735
10.03478543,5.979640689,9.606236,17.124872
10.13892169,6.336683384,9.640787,17.17692
10.1311414,6.703675774,9.675881,17.228868
10.16226258,7.080969989,9.711514,17.280708
10.16286106,7.468917337,9.747685,17.332436
10.15927016,7.867812724,9.784391,17.384039
10.16106561,8.277859609,9.821633,17.435511
10.14849744,8.699253099,9.85941,17.486841
10.12216413,9.132189434,9.897722,17.538023
10.12755049,9.576875815,9.936568,17.589046
10.00127031,10.03352558,9.975949,17.639904
9.845664409,10.5023521,10.015867,17.690586
9.68946002,10.98353985,10.056322,17.741091
9.581732855,11.4771929,10.097318,17.791399
9.556596516,11.9834014,10.138854,17.841513
9.362687619,12.50225199,10.180939,17.89142
9.426725434,13.03375878,10.223569,17.941111
9.552407126,13.577868,10.266751,17.990582
9.583528307,14.13452324,10.310488,18.039825
9.712202421,14.70367987,10.354787,18.088833
9.742725118,15.28535167,10.399652,18.137596
9.846262894,15.87957052,10.445086,18.186113
9.92466433,16.48636707,10.491098,18.234371
9.948005216,17.10569578,10.537694,18.28237
9.958777933,17.73739225,10.584878,18.330099
9.942618858,18.38128179,10.632659,18.377554
9.939027952,19.03719056,10.681045,18.424732
9.90072496,19.70495282,10.730042,18.471622
9.83728563,20.38440716,10.779657,18.518225
9.6332025,21.07539225,10.829901,18.564533
9.56976317,21.77775881,10.88078,18.610542
9.659535807,22.49138985,10.932304,18.656248
9.493157186,23.21617371,10.984484,18.701643
9.414755749,23.95199587,11.037327,18.746727
9.435104213,24.69868715,11.090844,18.791494
9.41355878,25.45602907,11.145044,18.835941
9.138854509,26.22380138,11.199938,18.880064
8.886294155,27.00179417,11.255536,18.923862
8.721710986,27.78984661,11.311849,18.967331
8.732483703,28.58781248,11.368886,19.010464
8.792332128,29.39554495,11.42666,19.053261
8.976665277,30.21286546,11.485181,19.09572
9.022748565,31.03954776,11.54446,19.137836
9.229225631,31.87536167,11.60451,19.179609
9.627816142,32.72008084,11.665342,19.221033
9.639785827,33.57351234,11.72697,19.262108
9.596096477,34.43548051,11.789401,19.302826
9.587119213,35.30580992,11.852653,19.343193
9.5458238,36.18434332,11.916738,19.383198
9.552407126,37.07097012,11.981664,19.42284
9.539838957,37.96558712,12.047447,19.46212
9.52188443,38.86808724,12.1141,19.50103
9.49794506,39.77829337,12.181636,19.539574
9.262142265,40.69596757,12.250069,19.577742
9.233415021,41.62086988,12.319411,19.61553
9.216657462,42.55276921,12.389679,19.652945
9.194513544,43.49147468,12.460885,19.689968
9.178952954,44.43680691,12.533043,19.726608
9.108331812,45.38858647,12.606172,19.76285
9.055665198,46.34663321,12.680283,19.798698
8.754029136,47.31076586,12.75539,19.834141
8.674430731,48.28080308,12.831511,19.869173
8.552339943,49.25655961,12.908662,19.903791
8.36321892,50.23781766,12.986856,19.93799
8.274044767,51.22434323,13.066113,19.971758
8.260279629,52.21590214,13.146445,20.005089
8.277037188,53.21223475,13.227875,20.037971
8.283620515,54.2130188,13.310413,20.0704
8.277635672,55.21792259,13.394084,20.102362
8.28721142,56.22661529,13.478896,20.133844
8.637923191,57.2387812,13.564878,20.164837
8.693582227,58.2541172,13.652037,20.195322
8.731885219,59.27232059,13.740399,20.225294
8.764203368,60.29307006,13.829978,20.254726
8.740862482,61.31596307,13.9208,20.283609
8.718120081,62.34057499,14.012876,20.31192
8.724703408,63.36648156,14.106233,20.339642
8.716324628,64.39327625,14.20089,20.366751
8.685801931,65.42057722,14.296861,20.393223
8.652286813,66.44800442,14.394175,20.419041
8.58705203,67.4751653,14.492846,20.444168
8.575082345,68.50156771,14.592907,20.468582
8.520620278,69.52667187,14.694368,20.492254
8.510446046,70.54993778,14.797262,20.515152
8.502665751,71.57084646,14.901603,20.537239
8.503264235,72.58892852,15.007425,20.558483
8.470347601,73.60372177,15.11474,20.578846
8.387756774,74.61475897,15.223587,20.598288
8.337484097,75.62149287,15.333983,20.61677
8.24352207,76.6233117,15.445952,20.634243
8.246514491,77.61960186,15.559531,20.650669
8.217188763,78.60975136,15.674734,20.665993
8.214196342,79.59315485,15.791602,20.680168
8.210006952,80.56920869,15.910151,20.693146
8.202226657,81.53730833,16.030422,20.704868
8.101681303,82.49681031,16.152435,20.715279
8.233946322,83.44701907,16.276236,20.724321
8.265067503,84.38723539,16.401836,20.731934
8.254294787,85.31676517,16.529285,20.738056
8.253097818,86.23495308,16.658611,20.742622
8.246514491,87.14116158,16.789837,20.745564
8.242923586,88.03475303,16.923012,20.746817
8.235741775,88.91504756,17.058161,20.746305
8.186666066,89.78126945,17.19533,20.743965
8.147166106,90.6326298,17.334541,20.739719
8.139984295,91.46834431,17.475851,20.733492
8.137590358,92.28769846,17.619276,20.725204
8.134597936,93.09003191,17.764879,20.714781
8.089113133,93.8746857,17.912676,20.702145
7.967022346,94.64099127,18.062729,20.687208
7.966423862,95.38824149,18.215069,20.669895
7.939492071,96.11571965,18.36973,20.650122
7.938295102,96.82270898,18.526772,20.627806
7.946673882,97.50849174,18.686216,20.602861
7.95624963,98.17234894,18.848129,20.575203
7.983779905,98.81356149,19.012535,20.544746
7.980189,99.43141618,19.179499,20.511402
7.97181022,100.0252423,19.349043,20.475096
7.959242051,100.5943878,19.521235,20.435728
7.89999211,101.1382007,19.696098,20.393225
7.892810299,101.6560119,19.873705,20.347494
7.875454256,102.1471152,20.054085,20.298452
7.864083055,102.6107994,20.237274,20.246019
7.778499807,103.0463518,20.423344,20.190109
7.696507465,103.4530398,20.61232,20.130648
7.505590989,103.8301151,20.80427,20.067543
7.425992583,104.1768294,20.999214,20.000727
7.209939769,104.4924525,21.197226,19.930115
7.175227682,104.776324,21.398325,19.85564
7.030992978,105.0278001,21.602583,19.77722
6.914288549,105.2462375,21.810017,19.694794
6.878977978,105.4310067,22.0207,19.608282
6.850849219,105.5814957,22.234663,19.517628
6.814341679,105.6970937,22.451935,19.42277
6.810750774,105.7771965,22.672581,19.323645
6.796985636,105.8212477,22.896626,19.220205
6.762273549,105.8287109,23.124126,19.112383
6.737735695,105.7990499,23.355099,19.000149
6.700629672,105.7317223,23.589607,18.883446
6.569561621,105.6261722,23.827663,18.762239
6.548016188,105.4818425,24.069328,18.636488
6.494751089,105.2981845,24.314604,18.506172
6.472008688,105.0747697,24.563555,18.371254
6.467819298,104.8112557,24.816196,18.231716
6.457046581,104.507302,25.072544,18.087551
6.442682959,104.1625835,25.332649,17.938736
6.427720853,103.7768325,25.596512,17.785284
6.372660302,103.349794,25.86418,17.627172
6.238001346,102.8812155,26.135643,17.464432
5.950130421,102.3709162,26.410954,17.297062
5.87950928,101.8188014,26.69009,17.125088
5.463562725,101.2247814,26.973103,16.948526
4.815404282,100.5887842,27.259964,16.767427
4.807025502,99.91085759,27.550713,16.581814
4.809419439,99.19109744,27.845343,16.391731
4.815404282,98.42960047,28.143837,16.197254
4.810017923,97.62653399,28.446222,15.998419
4.789070975,96.78220729,28.752464,15.795308
4.782487648,95.8969467,29.06259,15.587976
4.74897253,94.97108448,29.376549,15.376531
4.733411939,94.00502906,29.694363,15.161036
4.713661959,92.9992416,30.015982,14.941604
4.690321073,91.95418432,30.341413,14.718316
4.650821113,90.8703885,30.670597,14.491312
4.652616565,89.74862821,31.003544,14.260675
4.656207471,88.58973081,31.3402,14.026543
4.66877564,87.39452917,31.680508,13.78906
4.689124105,86.164021,32.024467,13.548336
4.631669617,84.89939379,32.371994,13.304537
4.657404439,83.60184552,32.723076,13.05779
4.660396861,82.27262862,33.077621,12.808279
4.623889321,80.91334003,33.435616,12.556135
5.059585856,79.52571113,33.796955,12.301552
5.431244576,78.11147465,34.16161,12.044681
5.588645934,76.67248783,34.52948,11.785728
5.611388335,75.21084847,34.90052,11.524846
5.81487298,73.72868187,35.274647,11.262239
5.889683512,72.22813579,35.651733,10.99812
5.572486859,70.71163077,36.031754,10.732656
6.112319653,69.1817691,36.414574,10.466076
8.280628094,67.64115633,36.800133,10.198563
8.284218999,66.09243156,37.188293,9.930354
8.280029609,64.53834678,37.578999,9.661634
8.292597779,62.98167774,37.972095,9.392649
8.299181105,61.4251998,38.367512,9.12359
8.324915928,59.87167832,38.765095,8.854708
8.570892955,58.32386756,39.164772,8.586196
8.925195632,56.7845212,39.566391,8.318295
8.983248604,55.25637301,39.96981,8.051245
9.471013268,53.74203637,40.374947,7.785246
9.891149212,52.24407957,40.781628,7.520553
9.978527913,50.76506932,41.189751,7.257365
10.19098982,49.30741644,41.599144,6.995937
10.222111,47.87324214,42.009705,6.73647
10.28016398,46.46463612,42.421246,6.479215
10.40285325,45.08366369,42.833668,6.224367
10.60873183,43.73210889,43.246784,5.972177
10.62189848,42.41157549,43.660484,5.722839
10.75655744,41.12366427,44.074596,5.47658
10.81401193,39.86983821,44.488941,5.233626
10.81042102,38.65111563,44.903412,4.994164
10.82478464,37.46842531,45.317806,4.758424
10.84393614,36.32268068,45.732018,4.526578
10.87924671,35.21439633,46.14584,4.29885
10.78229226,34.14366095,46.559158,4.075408
10.77989832,33.11054241,46.971775,3.85646
10.79366346,32.11502403,47.383575,3.642159
10.81939829,31.15659929,47.794353,3.432707
10.88942094,30.23458574,48.203995,3.228247
11.01211021,29.3482951,48.612309,3.028956
11.02288293,28.49652926,49.019169,2.834967
11.02707232,27.67717922,49.4244,2.646441
11.03006474,26.8880416,49.827827,2.463519
11.08632226,26.12691303,50.229351,2.286307
11.11205708,25.39159014,50.628765,2.114951
11.1228298,24.67986956,51.025967,1.949545
11.15933734,23.98954791,51.420761,1.790205
11.19105701,23.31842182,51.813049,1.637006
11.18207974,22.66428792,52.202644,1.490059
11.20362517,22.02494285,52.589439,1.349419
11.20422366,21.39818321,52.97327,1.215163
11.19704185,20.78180565,53.354023,1.087336
11.18447368,20.17360679,53.73156,0.965998
11.20003427,19.57138325,54.105721,0.851187
11.20901153,18.97293167,54.476425,0.742915
11.27544328,18.37604867,54.84351,0.641219
11.28322358,17.77853089,55.206886,0.546096
11.28322358,17.17817494,55.566399,0.457548
11.29519326,16.57277745,55.921978,0.375558
11.35683714,15.96013506,56.273476,0.300122
11.41608708,15.33804439,56.620815,0.231194
11.42386738,14.70430207,56.963867,0.168741
11.47713248,14.05670473,57.302567,0.112712
11.59503387,13.39304898,57.636791,0.063057
11.72610193,12.71113147,57.966438,0.019705
11.74046555,12.00874882,58.291462,-0.017422
11.81707153,11.28369765,58.611732,-0.048398
11.91043507,10.5337746,58.927208,-0.073319
11.95352594,9.756776287,59.237782,-0.092285
11.97267744,8.950499343,59.543415,-0.105403
11.99721529,8.112740396,59.844006,-0.11278
11.99901074,7.241296073,60.139523,-0.114542
11.99960923,6.333963002,60.429874,-0.110816
12.0008062,5.38853781,60.715038,-0.101731
12.00379862,4.402817124,60.994942,-0.087426
12.03432131,3.374597573,61.26952,-0.06805
12.08758641,2.301675784,61.538769,-0.043749
12.16179846,0,61.802601,-0.014676
12.17257118,0,62.061024,0.019011
12.28748015,0,62.313965,0.057145
12.40418458,0,62.56142,0.099568
12.41735123,0,62.803349,0.146108
12.4299194,0,63.039738,0.196597
12.45864665,0,63.270554,0.250859
12.57714653,0,63.495789,0.308726
12.69325247,0,63.715431,0.370021
12.70043429,0,63.929455,0.434564
12.71659336,0,64.137871,0.502185
12.77763875,0,64.340645,0.572702
12.83090385,0,64.537819,0.645947
12.9051159,0,64.729355,0.72174
13.10860054,0,64.915268,0.799913
13.12116871,0,65.095558,0.880288
13.12296417,0,65.270256,0.962708
13.14750202,0,65.439331,1.046996
13.16844897,0,65.602821,1.132995
13.1750323,0,65.760742,1.220545
13.17622926,0,65.913086,1.309483
13.21333529,0,66.059891,1.399664
13.4485396,0,66.201172,1.490928
13.67416816,0,66.336952,1.583145
13.72803174,0,66.467239,1.676162
13.72803174,0,66.592064,1.769852
13.73162265,0,66.711456,1.864076
13.79147107,0,66.825439,1.958721
13.7980544,0,66.934029,2.053653
13.80284228,0,67.037277,2.148764
13.79506198,0,67.135193,2.243946
13.81481196,0,67.227806,2.339087
13.98478149,0,67.315155,2.434096
14.93397751,0,67.397263,2.52887
14.94774265,0,67.474167,2.623337
14.91602298,0,67.545891,2.7174
14.94714416,0,67.612473,2.81099
14.87233363,0,67.673943,2.90403
14.93996235,0,67.730339,2.996465
14.8430079,0,67.781693,3.088221
14.62037176,0,67.828026,3.179254
13.71486509,0,67.869392,3.269511
13.76813019,0,67.905792,3.358942
14.01709964,0,67.937286,3.447514
14.15953889,0,67.963898,3.535185
14.15355405,0,67.985664,3.621934
14.26247818,0,68.002617,3.707724
14.0715617,0,68.014778,3.792542
13.95306182,0,68.022179,3.876361
14.48451584,0,68.024872,3.959178
14.41928105,0,68.022865,4.04097
14.20382672,0,68.016205,4.12174
14.13440255,0,68.004913,4.201482
13.99854663,0,67.989029,4.280189
14.01889509,0,67.968567,4.357871
13.99734966,0,67.943581,4.434524
13.89081946,0,67.914063,4.510165
13.74359233,0,67.880081,4.584792
13.74000143,0,67.841637,4.658425
13.6119258,0,67.798767,4.731068
13.61013035,0,67.751495,4.802743
13.67895604,0,67.69986,4.873458
13.70169844,0,67.643875,4.943234
13.69990298,0,67.58358,5.012088
13.65860757,0,67.51899,5.08003
13.65561515,0,67.450127,5.147087
13.64843334,0,67.377022,5.21327
13.64484243,0,67.299698,5.278604
13.63047881,0,67.218185,5.343101
13.58738795,0,67.1325,5.406785
13.50300167,0,67.042671,5.469668
13.50060773,0,66.948715,5.531773
13.49941076,0,66.85067,5.593111
13.50719106,0,66.74855,5.653702
13.49462289,0,66.64238,5.713559
13.50479712,0,66.532173,5.772694
13.50360015,0,66.417976,5.831123
13.47188048,0,66.299782,5.888855
13.48205472,0,66.177635,5.945905
13.58020613,0,66.051544,6.002278
13.64484243,0,65.921532,6.057989
13.66219848,0,65.787643,6.113036
13.68134997,0,65.649864,6.167433
13.9464785,0,65.50824,6.22118
14.34028113,0,65.362785,6.274283
14.35464475,0,65.213516,6.326744
14.33369781,0,65.060471,6.378559
14.34387204,0,64.903641,6.429735
14.34865991,0,64.743088,6.480263
14.39234926,0,64.578796,6.530149
14.38456897,0,64.41082,6.579382
14.4288568,0,64.239151,6.627964
14.58386422,0,64.063828,6.675882
14.84839426,0,63.884857,6.723138
15.45046942,0,63.702282,6.769717
15.38104524,0,63.516098,6.815618
15.38523463,0,63.326344,6.860828
15.32897711,0,63.133049,6.905336
15.31760591,0,62.936214,6.949139
15.36608314,0,62.735882,6.992218
15.40199219,0,62.532055,7.034571
15.45226487,0,62.324776,7.076181
15.49595422,0,62.114044,7.117041
15.49834816,0,61.89991,7.157135
15.49475725,0,61.682369,7.196459
15.49535574,0,61.461475,7.234995
15.47081788,0,61.237221,7.272736
15.42473459,0,61.009644,7.309669
15.37386343,0,60.778782,7.345781
15.36548465,0,60.544636,7.381066
15.26793172,0,60.307262,7.415509
15.18354544,0,60.066654,7.449103
15.18055302,0,59.822868,7.481837
15.19790906,0,59.575901,7.513704
15.17337121,0,59.325813,7.544692
15.13506822,0,59.072601,7.574798
15.13028034,0,58.816322,7.604011
15.15781062,0,58.55698,7.632326
15.1697803,0,58.294613,7.659739
15.14045458,0,58.029263,7.68624
15.11890914,0,57.760948,7.711831
15.05906072,0,57.489719,7.736503
14.90704572,0,57.21558,7.760257
14.90225784,0,56.938595,7.78309
14.90525027,0,56.658768,7.805005
14.90285633,0,56.37616,7.825998
14.89387906,0,56.090778,7.846073
14.9076442,0,55.802685,7.865232
14.91303056,0,55.51189,7.883478
14.86814424,0,55.21846,7.900815
14.64311416,0,54.922405,7.917249
14.45638708,0,54.623772,7.932786
14.44082649,0,54.322617,7.947432
14.44561436,0,54.018948,7.961196
14.44142497,0,53.712837,7.974086
14.4174856,0,53.404293,7.986115
14.46536434,0,53.093388,7.997289
14.49050068,0,52.780128,8.007623
14.65628082,0,52.464588,8.017128
14.75981859,0,52.146778,8.025818
14.52162186,0,51.826771,8.033706
13.40066086,0,51.504581,8.040806
13.28455491,0,51.180264,8.047134
13.27797159,0,50.853878,8.052705
13.3001155,0,50.525433,8.057535
13.48085775,0,50.195007,8.061641
13.40006237,0,49.862614,8.065038
13.53950921,0,49.528324,8.067744
13.7334181,0,49.192162,8.069777
13.6538197,0,48.854187,8.071156
13.58559249,0,48.514416,8.071896
13.35457757,0,48.172932,8.072018
13.21393377,0,47.829742,8.071536
13.2091459,0,47.484905,8.070472
13.11219145,0,47.138489,8.068841
13.14750202,0,46.790493,8.066662
13.03379001,0,46.44101,8.063951
12.63400253,0,46.090031,8.060726
12.4299194,0,45.737644,8.057005
12.43949515,0,45.383858,8.052802
12.45505574,0,45.028751,8.048137
12.44488151,0,44.672325,8.043024
12.41675275,0,44.314667,8.037478
12.39760125,0,43.955772,8.031514
12.39819974,0,43.595707,8.025147
12.39999519,0,43.234535,8.018393
12.40897246,0,42.87225,8.011261
12.41256336,0,42.508942,8.003766
12.64776767,0,42.144596,7.995922
12.64357828,0,41.779312,7.987738
12.61305558,0,41.413071,7.979226
12.60707074,0,41.045959,7.970397
12.62801769,0,40.677979,7.961259
12.69085854,0,40.309204,7.951824
12.7453206,0,39.939629,7.942097
12.77105543,0,39.569321,7.93209
12.80337358,0,39.198322,7.92181
12.80277509,0,38.826637,7.911261
12.8213281,0,38.454346,7.900452
12.81713871,0,38.08144,7.889387
12.81354781,0,37.707993,7.878073
12.79978267,0,37.333996,7.866511
12.76267665,0,36.959526,7.854709
12.73095698,0,36.584579,7.842669
12.72796456,0,36.209225,7.830393
12.72497214,0,35.833454,7.817886
12.68307824,0,35.457321,7.805149
12.62203285,0,35.080879,7.792185
12.63998738,0,34.704121,7.778995
12.63041163,0,34.327114,7.76558
12.63819192,0,33.949848,7.75194
12.26773017,0,33.572403,7.738079
11.894276,0,33.194756,7.723993
11.91881385,0,32.816986,7.709685
11.92420021,0,32.439079,7.695154
12.62562375,0,32.061108,7.6804
13.08346421,0,31.683062,7.665425
13.08825208,0,31.304983,7.650227
13.04635818,0,30.926929,7.634807
12.95957797,0,30.548887,7.619164
12.79738873,0,30.170931,7.603299
12.28748015,0,29.793039,7.58721
11.60760204,0,29.415293,7.570899
11.79313216,0,29.037676,7.554368
11.84400332,0,28.660259,7.537614
11.84699574,0,28.283033,7.520641
11.80151094,0,27.906071,7.50345
11.82126092,0,27.52936,7.486041
11.73986706,0,27.152952,7.468416
11.69976862,0,26.776903,7.450581
11.67702622,0,26.401205,7.432534
11.67642773,0,26.025928,7.414283
11.75782159,0,25.651068,7.395829
11.84639726,0,25.276703,7.377178
11.86495027,0,24.902822,7.358334
11.88051086,0,24.529507,7.339303
11.88410177,0,24.156752,7.320089
11.87871541,0,23.784634,7.3007
11.93916232,0,23.413153,7.281142
12.21685901,0,23.04237,7.261423
12.35929826,0,22.672344,7.241551
12.34373767,0,22.303078,7.221535
12.33476041,0,21.934654,7.201384
12.32159375,0,21.567074,7.181105
12.56757078,0,21.200428,7.160711
12.7076161,0,20.834713,7.14021
12.7758433,0,20.470024,7.119613
12.74711606,0,20.106363,7.098931
12.72616911,0,19.743818,7.078176
12.69804035,0,19.382406,7.057358
12.69684338,0,19.02219,7.03649
12.69205551,0,18.663246,7.015585
12.69684338,0,18.305584,6.994654
12.80816145,0,17.949297,6.973711
12.93324466,0,17.594402,6.952769
13.08944905,0,17.240992,6.931841
13.17563078,0,16.889086,6.910941
13.19538076,0,16.538778,6.890081
13.19837318,0,16.190088,6.869276
13.24984283,0,15.843115,6.848539
13.23667617,0,15.497875,6.827885
13.23128982,0,15.154454,6.807327
13.22829739,0,14.812929,6.786882
13.18041865,0,14.473325,6.766563
13.28575188,0,14.13574,6.746386
13.27976704,0,13.800204,6.726364
13.14391112,0,13.466816,6.706514
13.07448694,0,13.135604,6.686849
13.1558808,0,12.80667,6.667386
13.32764578,0,12.480043,6.648138
13.40365328,0,12.155828,6.629124
13.57422129,0,11.834056,6.610356
13.68613785,0,11.51481,6.591852
13.99495572,0,11.198176,6.573627
14.1326071,0,10.884192,6.555695
14.07994048,0,10.572957,6.538074
13.86149373,0,10.264507,6.520779
14.44920527,0,9.958949,6.503827
14.55513698,0,9.656314,6.487232
14.5389779,0,9.356709,6.471013
14.57249302,0,9.060173,6.455184
14.59762936,0,8.766806,6.439762
14.57069757,0,8.476648,6.424761
14.592243,0,8.189788,6.4102
14.59882633,0,7.90631,6.396094
14.38576594,0,7.626256,6.382458
14.33848568,0,7.349725,6.36931
14.34506901,0,7.076761,6.356665
14.32890993,0,6.807462,6.344539
14.34028113,0,6.541872,6.332947
14.39713714,0,6.280088,6.321907
14.41509166,0,6.022152,6.311432
14.41569015,0,5.768162,6.301539
14.43783407,0,5.51816,6.292242
14.44202346,0,5.272227,6.283556
14.59164452,0,5.030446,6.275495
14.38217503,0,4.792857,6.268075
14.34806143,0,4.559552,6.261308
14.41209924,0,4.330572,6.255208
14.42765983,0,4.106007,6.249787
14.64131871,0,3.885909,6.245059
14.76520495,0,3.670315,6.241033
14.7328868,0,3.459334,6.237721
14.8543791,0,3.253006,6.235136
14.93996235,0,3.051385,6.233284
15.64737074,0,2.854509,6.232173
15.75090851,0,2.662477,6.231813
15.78322666,0,2.475321,6.232208
15.78382515,0,2.293072,6.233363
15.78442363,0,2.11582,6.235282
15.78322666,0,1.943595,6.237967
15.78801454,0,1.77644,6.24142
15.80955997,0,1.614381,6.245638
15.84367357,0,1.457494,6.250619
15.83948418,0,1.305802,6.256361
15.7742494,0,1.159338,6.262855
15.71859036,0,1.018118,6.270093
15.70901461,0,0.882205,6.278065
15.7096131,0,0.751609,6.286758
15.70662068,0,0.626339,6.296157
15.69405251,0,0.506442,6.306242
15.66831769,0,0.391923,6.316996
15.63959044,0,0.282794,6.328393
15.07641676,0,0.179049,6.340412
14.76101556,0,0.080721,6.35302
14.75084133,0,-0.012201,6.366189
14.744258,0,-0.099721,6.379884
14.74246255,0,-0.181855,6.394068
14.72869741,0,-0.258591,6.408701
14.72809893,0,-0.329957,6.423739
14.65508385,0,-0.395979,6.439138
14.50426582,0,-0.456664,6.454845
14.47015221,0,-0.512047,6.470811
14.52222034,0,-0.562161,6.486978
14.51982641,0,-0.607048,6.50329
14.4252659,0,-0.646736,6.519684
14.51922792,0,-0.681276,6.536096
14.53837942,0,-0.710719,6.552458
14.53059912,0,-0.735122,6.568702
14.67543231,0,-0.754532,6.584751
14.63234145,0,-0.769019,6.600532
14.63533387,0,-0.778651,6.615966
14.84779578,0,-0.783492,6.630971
14.85557607,0,-0.783619,6.645467
14.85737153,0,-0.779112,6.659367
14.95851536,0,-0.770051,6.672585
15.53126479,0,-0.756522,6.685032
15.53964357,0,-0.738614,6.696619
15.44089367,0,-0.71642,6.707253
15.61924198,0,-0.690031,6.716846
15.70063583,0,-0.65955,6.725301
15.63001469,0,-0.625078,6.732527
15.39181796,0,-0.586713,6.738431
15.55879507,0,-0.544569,6.742918
15.5803405,0,-0.498748,6.745896
15.65694648,0,-0.449362,6.747274
15.75868881,0,-0.396515,6.74696
15.84187812,0,-0.34033,6.744865
15.99269615,0,-0.280914,6.740902
16.56604406,0,-0.218383,6.734988
16.68813485,0,-0.152844,6.727036
16.96523306,0,-0.084425,6.716969
17.42606593,0,-0.013232,6.704715
18.09158042,0,0.060627,6.690195
18.37885286,0,0.137024,6.673344
18.73614795,0,0.215856,6.654098
18.72597372,0,0.297012,6.632401
18.73495099,0,0.38039,6.608193
18.73375402,0,0.465865,6.581431
18.75170854,0,0.553344,6.552076
18.76248126,0,0.642722,6.520092
18.77385246,0,0.733909,6.485442
18.85764026,0,0.82679,6.448115
18.96656439,0,0.921281,6.408097
19.00187496,0,1.017301,6.365373
19.03179917,0,1.114742,6.319951
18.99050376,0,1.213534,6.271842
18.87739024,0,1.313597,6.221065
18.82532211,0,1.414866,6.167634
18.68228437,0,1.517249,6.111597
18.48897396,0,1.620691,6.052999
18.18075457,0,1.725131,5.991889
29.16772845,-6.471900629,2.501035,6.430772
28.98638772,-6.982988685,2.63981,6.392871
28.9869862,-7.538939986,2.776783,6.351114
28.94688776,-8.143232566,2.911895,6.305544
28.56864571,-8.799344459,3.04509,6.256202
28.53513059,-9.510753699,3.17632,6.203145
28.50041851,-10.28093832,3.305558,6.146447
28.41423677,-11.11337636,3.432783,6.086189
28.36875197,-12.01151057,3.55797,6.02245
28.36575955,-12.97737462,3.68111,5.955326
28.28436569,-14.01114961,3.802212,5.884929
28.0180402,-15.11289058,3.921281,5.811374
28.00068416,-16.28255556,4.038327,5.734777
28.00128264,-17.51861104,4.153375,5.655271
28.0102599,-18.81835443,4.266459,5.572998
28.07310075,-20.17905186,4.377612,5.488102
28.08327498,-21.59782707,4.486872,5.400733
28.09704012,-23.07072017,4.594287,5.31105
28.05873713,-24.59327298,4.699914,5.219223
27.86183581,-26.1610247,4.803808,5.125418
27.89594941,-27.76945258,4.906023,5.029808
27.90851758,-29.41377737,5.006628,4.932574
27.89056305,-31.08915347,5.105691,4.833902
28.00487355,-32.79073615,5.203279,4.733976
28.33583534,-34.513903,5.299462,4.632983
28.45373673,-36.25454708,5.394314,4.531113
28.48785034,-38.00863434,5.487909,4.428559
28.49144124,-39.7721426,5.580321,4.325512
28.4435625,-41.54155838,5.671622,4.222163
28.21793394,-43.31405748,5.761885,4.118703
27.88338124,-45.0868647,5.851184,4.015321
27.87919185,-46.85724025,5.939588,3.912209
27.94801754,-48.62301409,6.027169,3.809549
27.94322967,-50.3824763,6.113988,3.707523
27.73376018,-52.13393013,6.200113,3.606311
27.46025288,-53.87570257,6.285605,3.506093
27.10535172,-55.60630821,6.370521,3.407035
26.59185223,-57.32435068,6.454912,3.309301
26.43804178,-59.02843416,6.538831,3.213056
25.517573,-60.71714874,6.622325,3.118457
25.04177802,-62.3890242,6.705435,3.025648
23.92979428,-64.04257418,6.788195,2.93477
23.60062794,-65.67631191,6.870642,2.845964
23.57070373,-67.28862663,6.952804,2.759362
23.35764334,-68.87761071,7.0347,2.675078
23.31156005,-70.44131299,7.11635,2.593226
23.12483297,-71.97778477,7.197771,2.513921
23.02309064,-73.48518999,7.27897,2.437261
22.97999978,-74.96184989,7.359948,2.363332
