Gait_percent,EMG,GRF,ANKLE
0,18.07646668,37.57765691,-4.630419
0.1,18.10349861,43.07757455,-4.742421
0.2,18.08986304,48.88190463,-4.865044
0.3,18.07407448,54.97135232,-4.997772
0.4,18.05732903,61.31684812,-5.139927
0.5,18.05517605,67.87215502,-5.290678
0.6,17.95877014,74.58009346,-5.449054
0.7,17.59587246,81.3726758,-5.613961
0.8,16.41723249,88.17589618,-5.784207
0.9,11.96366226,94.9153203,-5.958524
1,11.85409922,101.5191779,-6.135585
1.1,11.85792675,107.920842,-6.314038
1.2,12.13446578,114.0618141,-6.492527
1.3,13.44683009,119.893473,-6.669716
1.4,13.6071079,125.3762663,-6.844313
1.5,13.2415788,130.4827724,-7.015092
1.6,13.25330061,135.1969256,-7.180911
1.7,13.27483046,139.5133229,-7.340724
1.8,13.27602657,143.4390292,-7.493599
1.9,13.27889721,146.9908588,-7.638723
2,13.33607094,150.1935188,-7.775412
2.1,13.48534461,153.0775652,-7.903102
2.2,13.50041551,155.676173,-8.021369
2.3,13.50974511,158.0232355,-8.12991
2.4,13.74561664,160.1534965,-8.228543
2.5,14.09152965,162.1021631,-8.317201
2.6,16.33541903,163.9030752,-8.395919
2.7,16.49091244,165.5915968,-8.464834
2.8,17.03394324,167.2019355,-8.524158
2.9,17.8202614,168.7657528,-8.574175
3,18.45132539,170.3147962,-8.615221
3.1,18.33913092,171.876084,-8.647678
3.2,18.37333947,173.4737972,-8.671957
3.3,18.31712262,175.1304911,-8.688478
3.4,17.85638372,176.8644175,-8.697671
3.5,17.59348026,178.6895695,-8.699954
3.6,18.41831294,180.6168859,-8.695731
3.7,17.85710138,182.6537817,-8.685375
3.8,18.31257743,184.8013967,-8.66923
3.9,18.49151445,187.0568833,-8.647599
4,18.47070226,189.4141286,-8.620744
4.1,18.44199579,191.8637063,-8.588885
4.2,18.43123086,194.393037,-8.552192
4.3,18.42859943,196.9903221,-8.510793
4.4,18.42907787,199.6433433,-8.464772
4.5,18.42931709,202.3392288,-8.414174
4.6,18.42836021,205.0666184,-8.358999
4.7,18.42285814,207.8137871,-8.299217
4.8,18.42261892,210.5711603,-8.234759
4.9,18.42333658,213.3328915,-8.165529
5,18.42261892,216.0961545,-8.091403
5.1,18.40372049,218.8609112,-8.012232
5.2,18.46615707,221.6320427,-7.927853
5.3,18.83383916,224.4187965,-7.838083
5.4,18.63767825,227.2313112,-7.74273
5.5,18.59701074,230.0827749,-7.641596
5.6,18.5883988,232.9870912,-7.534482
5.7,18.58696348,235.958056,-7.421194
5.8,18.59007335,239.0106059,-7.30155
5.9,18.58815958,242.1585053,-7.175385
6,18.53983702,245.4157923,-7.042556
6.1,18.43649371,248.7969186,-6.902957
6.2,18.41855216,252.3149107,-6.756515
6.3,18.40898334,255.9810022,-6.603201
6.4,18.21688918,259.805945,-6.44304
6.5,17.95446417,263.8000574,-6.276106
6.6,15.92754788,267.9722384,-6.10253
6.7,15.74023814,272.3315857,-5.922506
6.8,15.16993619,276.8872092,-5.736288
6.9,14.11138496,281.64869,-5.54418
7,13.39467999,286.6270134,-5.346556
7.1,13.37793455,291.8329844,-5.143835
7.2,13.32817666,297.2782519,-4.936489
7.3,13.30497226,302.9747015,-4.725033
7.4,13.29277201,308.9326099,-4.510021
7.5,13.19660532,315.1619554,-4.292041
7.6,11.40962732,321.669648,-4.071699
7.7,9.081532273,328.4582907,-3.849622
7.8,8.253350498,335.5264376,-3.626442
7.9,7.828494683,342.8678654,-3.402792
8,7.822992608,350.4710254,-3.179291
8.1,7.821078844,358.3185587,-2.956544
8.2,7.814619887,366.3865732,-2.73513
8.3,7.816533652,374.643299,-2.515589
8.4,7.836867404,383.050999,-2.298429
8.5,7.85456973,391.566874,-2.084106
8.6,7.855287392,400.1432972,-1.873026
8.7,7.856961936,408.7294492,-1.665548
8.8,7.856722715,417.2724949,-1.461969
8.9,7.85456973,425.719991,-1.262532
9,7.855048171,434.0225372,-1.067425
9.1,7.722041508,442.1331095,-0.876777
9.2,7.111550494,450.0104532,-0.690669
9.3,1.811856951,457.6199318,-0.509126
9.4,1.625982532,464.9326899,-0.332128
9.5,1.628135517,471.9258707,-0.159607
9.6,1.600625147,478.5821316,0.008541
9.7,1.461159527,484.8892163,0.172464
9.8,1.41953514,490.8395547,0.332343
9.9,1.40422502,496.4297773,0.488389
10,1.420013581,501.660375,0.640843
10.1,1.417621375,506.5352797,0.789966
10.2,1.411162418,511.0614165,0.93604
10.3,1.444653304,515.2484153,1.079364
10.4,1.420970463,519.1074067,1.22025
10.5,1.443696422,522.6497508,1.359019
10.6,1.487473795,525.8865805,1.495991
10.7,1.495607296,528.8308063,1.63149
10.8,1.53220805,531.4946674,1.765833
10.9,1.527423638,533.8910408,1.899329
11,1.526945197,536.0353486,2.032269
11.1,1.529337403,537.9427034,2.164926
11.2,1.530055065,539.6308781,2.297553
11.3,1.525031432,541.1209683,2.430378
11.4,1.537470904,542.4367864,2.563595
11.5,1.534600256,543.6047986,2.697365
11.6,1.550388817,544.654509,2.831818
11.7,1.564981275,545.6168153,2.967049
11.8,1.554934009,546.5222637,3.103114
11.9,1.54751817,547.4016947,3.240036
12,1.553020244,548.2851029,3.377795
12.1,1.5594792,549.2010425,3.516344
12.2,1.561153745,550.1763297,3.655599
12.3,1.511874298,551.2356998,3.795449
12.4,1.420252802,552.4013438,3.935753
12.5,1.424080331,553.6918398,4.076352
12.6,1.432213832,555.121378,4.217067
12.7,1.424319552,556.7003731,4.357711
12.8,1.428386303,558.4360378,4.498092
12.9,1.429582406,560.3321032,4.638012
13,1.438194348,562.3884697,4.777286
13.1,1.464508616,564.6016432,4.915734
13.2,1.503262356,566.9667538,5.053201
13.3,1.512352739,569.4774931,5.189545
13.4,1.519290137,572.1257827,5.324652
13.5,1.518333254,574.9025305,5.458436
13.6,1.48938756,577.7968285,5.590841
13.7,1.462834071,580.7950509,5.721842
13.8,1.45470057,583.8811974,5.851443
13.9,1.448959276,587.0394009,5.97968
14,1.456135894,590.2517223,6.106617
14.1,1.477426529,593.4999498,6.232344
14.2,1.486995354,596.767292,6.356968
14.3,1.503262356,600.0372087,6.480615
14.4,1.506850665,603.2945594,6.603421
14.5,1.500870149,606.5245293,6.725527
14.6,1.467618484,609.7118031,6.847079
14.7,1.474795102,612.8414931,6.968209
14.8,1.447284731,615.8988257,7.089042
14.9,1.533882595,618.8701252,7.209689
15,1.573114776,621.7433456,7.330238
15.1,1.657081212,624.5072436,7.450756
15.2,1.789848654,627.1520824,7.57127
15.3,1.792240861,629.6703011,7.691787
15.4,1.765687372,632.056642,7.812274
15.5,1.76114218,634.3074618,7.932661
15.6,1.782432815,636.4201836,8.052839
15.7,1.822621879,638.3923459,8.172655
15.8,1.860657957,640.2210875,8.291923
15.9,1.861136398,641.9032846,8.410413
16,1.880752489,643.4345585,8.527866
16.1,1.88912521,644.8106311,8.643981
16.2,1.878599503,646.028516,8.758431
16.3,1.882905474,647.0865505,8.870867
16.4,1.906827536,647.9839331,8.980918
16.5,1.965436587,648.7220713,9.088202
16.6,2.217096676,649.3053325,9.19233
16.7,2.401535771,649.7403397,9.292916
16.8,2.662764685,650.0351935,9.389583
16.9,2.701279204,650.2008036,9.48197
17,2.900310757,650.2509134,9.569736
17.1,5.62431592,650.2000462,9.652579
17.2,13.75733845,650.0638799,9.730226
17.3,15.51752375,649.8581175,9.802448
17.4,18.20755958,649.5973428,9.869074
17.5,18.39247712,649.2941639,9.929963
17.6,18.48673004,648.9584032,9.985044
17.7,18.58361439,648.5980136,10.034296
17.8,20.74138435,648.219044,10.077744
17.9,22.61830931,647.8245754,10.115479
18,22.98551296,647.4168934,10.147634
18.1,23.85149159,646.9972083,10.174399
18.2,26.06882749,646.5658085,10.196004
18.3,27.50391197,646.1232155,10.212723
18.4,28.65839066,645.6703997,10.224864
18.5,29.4652818,645.2078312,10.232767
18.6,29.48465867,644.7361698,10.236795
18.7,29.56718979,644.2582036,10.237331
18.8,29.66287803,643.7765442,10.234773
18.9,29.70330632,643.2952531,10.229518
19,29.71431047,642.8196556,10.221969
19.1,29.71024372,642.3542358,10.212525
19.2,29.70354554,641.904186,10.201574
19.3,29.70378476,641.4748058,10.189496
19.4,29.71096138,641.0699824,10.176654
19.5,29.7135928,640.6906151,10.163395
19.6,29.71550657,640.3358171,10.150051
19.7,29.71502813,640.0011799,10.136936
19.8,29.71407125,639.6794506,10.124345
19.9,29.71502813,639.3630642,10.11255
20,29.71431047,639.0428345,10.10181
20.1,29.71431047,638.7099167,10.092365
20.2,29.71694189,638.3558169,10.084438
20.3,29.71981254,637.9713149,10.078227
20.4,29.71670267,637.549694,10.073921
20.5,29.70737307,637.0854903,10.071684
20.6,29.68943152,636.5750399,10.071665
20.7,29.67675283,636.0181764,10.073998
20.8,29.65857206,635.4161547,10.078797
20.9,29.65641908,634.7727228,10.08616
21,29.62938715,634.0934719,10.09617
21.1,29.22773573,633.3841091,10.108897
21.2,26.36593949,632.6512927,10.124396
21.3,25.38465652,631.9015683,10.142709
21.4,23.542897,631.1417097,10.163867
21.5,23.41658851,630.3792487,10.187899
21.6,23.34003791,629.6193758,10.214818
21.7,23.25774602,628.8674268,10.244637
21.8,21.31886292,628.1289088,10.277363
21.9,19.35916763,627.4084712,10.312998
22,18.90345235,626.7126611,10.351543
22.1,17.79920999,626.0484374,10.393003
22.2,14.37739829,625.4232336,10.437379
22.3,11.41728237,624.8460295,10.484673
22.4,7.695248799,624.3273126,10.534886
22.5,4.289704099,623.8799245,10.588028
22.6,4.171529115,623.518792,10.644096
22.7,3.531135524,623.2607461,10.703102
22.8,2.620183415,623.1267134,10.765043
22.9,2.080501704,623.1382033,10.829919
23,1.920223891,623.3157745,10.897727
23.1,1.911851169,623.6782137,10.968454
23.2,1.904913771,624.2396046,11.042086
23.3,1.893670402,625.0075718,11.118594
23.4,1.795350729,625.9829346,11.197944
23.5,1.758749974,627.1594723,11.280092
23.6,1.715929484,628.522384,11.364984
23.7,1.684830804,630.0504269,11.452557
23.8,1.66019108,631.7166946,11.542735
23.9,1.679089509,633.4892078,11.635433
24,1.708513645,635.3333458,11.730562
24.1,1.715451043,637.2133957,11.828016
24.2,1.665693154,639.0939648,11.927684
24.3,1.653732123,640.9415327,12.029454
24.4,1.67167367,642.7261741,12.133202
24.5,1.723823764,644.4217035,12.238797
24.6,1.785542683,646.0062012,12.346107
24.7,1.777887624,647.4629705,12.45498
24.8,1.750138032,648.781706,12.565273
24.9,1.742722193,649.9565074,12.676823
25,1.742961414,650.9861798,12.789459
25.1,1.709231307,651.8743787,12.902996
25.2,1.721909999,652.6268614,13.017235
25.3,1.733631809,653.2513553,13.131966
25.4,1.734110251,653.7572151,13.246952
25.5,1.735545574,654.1548575,13.361957
25.6,1.849414588,654.4551928,13.476723
25.7,1.857308868,654.669905,13.590984
25.8,1.874532753,654.8109871,13.704471
25.9,1.877642621,654.890273,13.816902
26,1.918788567,654.9195413,13.928012
26.1,1.924529862,654.9095955,14.037531
26.2,1.945581276,654.8693106,14.145208
26.3,1.96280516,654.8054198,14.250806
26.4,1.976679956,654.7233841,14.35411
26.5,2.110643501,654.6242507,14.454923
26.6,2.115906355,654.5065821,14.553086
26.7,2.177146833,654.3683858,14.648461
26.8,2.163750478,654.2058654,14.740949
26.9,2.224034074,654.015667,14.830477
27,2.207527851,653.7957972,14.917004
27.1,2.224512515,653.5454248,15.00053
27.2,2.486937532,653.2637826,15.081078
27.3,2.53669542,652.9512732,15.158709
27.4,2.613963679,652.6084654,15.233506
27.5,2.733334767,652.2358503,15.305585
27.6,2.721852177,651.8357718,15.375085
27.7,2.750319431,651.4106897,15.442163
27.8,2.754386181,650.9631832,15.507003
27.9,2.78093967,650.4964219,15.569801
28,2.802469525,650.0142244,15.630762
28.1,2.795771348,649.5194165,15.690105
28.2,2.853423516,649.0156083,15.748048
28.3,2.873757269,648.5082241,15.804811
28.4,2.875431813,648.0030365,15.860609
28.5,2.863231562,647.5061199,15.915648
28.6,2.840266382,647.0242807,15.970126
28.7,2.837634956,646.5651941,16.024221
28.8,2.826152366,646.136811,16.078104
28.9,2.844333133,645.7458368,16.131918
29,2.876627916,645.3981632,16.185787
29.1,2.893373359,645.0988091,16.239819
29.2,2.91681698,644.8504915,16.294092
29.3,2.968967074,644.6529149,16.348671
29.4,3.034274303,644.5038002,16.403595
29.5,3.039297936,644.3990624,16.458887
29.6,2.980928105,644.3318457,16.51454
29.7,2.951503969,644.2948843,16.570539
29.8,2.97877512,644.2803345,16.626856
29.9,2.971598501,644.2797487,16.683439
30,2.923275936,644.2850165,16.740232
30.1,2.90533439,644.2890607,16.797165
30.2,2.912271788,644.2860678,16.854166
30.3,2.913946332,644.2718215,16.911144
30.4,2.943131248,644.2440026,16.968025
30.5,2.865623768,644.200672,17.024719
30.6,2.846486119,644.140774,17.081144
30.7,2.79266148,644.0647813,17.13722
30.8,2.786680964,643.9747902,17.192873
30.9,2.729985678,643.8730846,17.248041
31,2.72687581,643.7617116,17.302664
31.1,2.707020499,643.6421324,17.356701
31.2,2.479282472,643.5148339,17.41011
31.3,2.430720687,643.3799083,17.462877
31.4,2.330008807,643.2380762,17.51499
31.5,2.215661352,643.0901498,17.566456
31.6,2.217575117,642.9355557,17.617283
31.7,2.194370717,642.7746281,17.667507
31.8,2.239822634,642.6083467,17.717157
31.9,2.17977826,642.4378708,17.766291
32,2.136957769,642.2646608,17.814959
32.1,2.134565563,642.0921226,17.863228
32.2,2.049642244,641.9241733,17.911175
32.3,1.992946958,641.7651379,17.958872
32.4,1.982660471,641.6207506,18.006411
32.5,1.957303086,641.4965759,18.053875
32.6,1.944385173,641.3970674,18.101358
32.7,1.928835833,641.325337,18.148951
32.8,1.926443627,641.2831121,18.196743
32.9,1.919027787,641.2696804,18.244831
33,1.859940295,641.2829777,18.293293
33.1,1.83841044,641.3193069,18.342213
33.2,1.806115656,641.3723051,18.391661
33.3,1.728129735,641.434585,18.4417
33.4,1.621915781,641.49852,18.492386
33.5,1.606605662,641.5562952,18.543747
33.6,1.595123072,641.5998005,18.59581
33.7,1.607562544,641.6214561,18.648581
33.8,1.548235832,641.6131233,18.702044
33.9,1.547996611,641.5670449,18.75617
34,1.554216347,641.477487,18.810917
34.1,1.547278949,641.3387077,18.866228
34.2,1.508525209,641.146881,18.922024
34.3,1.518811696,640.8998304,18.978235
34.4,1.469532249,640.5957661,19.034777
34.5,1.444653304,640.2349416,19.091562
34.6,1.479579515,639.8177993,19.148516
34.7,1.480536397,639.3450867,19.205563
34.8,1.47383822,638.8193715,19.262644
34.9,1.475034323,638.2458469,19.319696
35,1.483407044,637.630098,19.37668
35.1,1.484124706,636.9787604,19.433567
35.2,1.602778132,636.3010734,19.49033
35.3,1.614978384,635.6069354,19.546955
35.4,1.636269018,634.9064544,19.603439
35.5,1.634116033,634.210502,19.659779
35.6,1.748463488,633.5311731,19.715977
35.7,1.816880584,632.8805446,19.772036
35.8,1.805876436,632.2709754,19.827963
35.9,1.806594098,631.7148917,19.883755
36,1.79582917,631.2241456,19.939411
36.1,1.831951483,630.8093323,19.99493
36.2,1.858265751,630.48041,20.050306
36.3,1.889842872,630.2461732,20.105522
36.4,1.901803903,630.1135231,20.160568
36.5,1.903239227,630.087863,20.215431
36.6,1.897976373,630.1711915,20.270098
36.7,1.882187812,630.3629793,20.32456
36.8,1.872858208,630.66123,20.378811
36.9,1.852046015,631.060234,20.432858
37,1.859940295,631.5506299,20.486708
37.1,1.878838724,632.1204712,20.540392
37.2,1.858265751,632.7557467,20.593933
37.3,1.823817982,633.4388668,20.647383
37.4,1.820947335,634.1510856,20.7008
37.5,1.820229673,634.8723809,20.754248
37.6,1.820468893,635.5811424,20.807814
37.7,1.815923702,636.2562804,20.861586
37.8,1.855395103,636.8774286,20.915657
37.9,1.865920811,637.4265509,20.970135
38,1.921659214,637.8893931,21.025124
38.1,1.92405142,638.2552295,21.080721
38.2,1.950604909,638.5182367,21.137032
38.3,2.001080459,638.6790966,21.194147
38.4,2.100117794,638.745771,21.25215
38.5,2.140546079,638.7324072,21.3111
38.6,2.200590453,638.6588668,21.371054
38.7,2.208006292,638.5495806,21.432043
38.8,2.227861604,638.4313403,21.494076
38.9,2.233602898,638.3298259,21.557144
39,2.226665501,638.2715931,21.621229
39.1,2.223077191,638.2800448,21.686274
39.2,2.159922948,638.3726618,21.752216
39.3,2.168534891,638.564264,21.818975
39.4,2.159683728,638.8632783,21.886457
39.5,2.159444507,639.2725342,21.954554
39.6,2.100596236,639.7912544,22.023161
39.7,2.00921396,640.4160755,22.092154
39.8,1.975483853,641.1398542,22.161421
39.9,1.998927473,641.9538086,22.230852
40,1.992946958,642.8491216,22.300333
40.1,2.007060974,643.8160293,22.369766
40.2,1.990315531,644.844889,22.439058
40.3,1.963522822,645.9259437,22.508127
40.4,1.961848278,647.0488441,22.576891
40.5,1.960173734,648.2024057,22.645292
40.6,1.961609057,649.3742589,22.713272
40.7,1.972852426,650.5520701,22.780781
40.8,1.976919177,651.7237777,22.847771
40.9,2.040551861,652.8761002,22.914198
41,2.095333382,653.9969023,22.980028
41.1,2.115906355,655.0745528,23.045223
41.2,2.119016223,656.0978216,23.109743
41.3,2.123800635,657.0578298,23.173557
41.4,2.123561415,657.9491501,23.236616
41.5,2.12547518,658.7687736,23.298885
41.6,2.131455695,659.5158941,23.360321
41.7,2.126671283,660.1931133,23.420885
41.8,2.086482219,660.8044996,23.480526
41.9,2.103466883,661.35583,23.539196
42,2.073564306,661.8540399,23.596853
42.1,2.068062232,662.3051442,23.653442
42.2,2.027155506,662.7148276,23.708916
42.3,1.940318422,663.088305,23.763216
42.4,1.818794349,663.430061,23.816284
42.5,1.76114218,663.7437027,23.868057
42.6,1.655885109,664.0320096,23.918465
42.7,1.647990829,664.2960928,23.967424
42.8,1.624307988,664.535915,24.014851
42.9,1.619523575,664.7521993,24.060646
43,1.628853179,664.945161,24.104702
43.1,1.635312136,665.1152849,24.146893
43.2,1.583401262,665.2635324,24.187092
43.3,1.567851922,665.3904929,24.225153
43.4,1.570483349,665.4961391,24.26092
43.5,1.540102331,665.5805904,24.29423
43.6,1.499195605,665.6437456,24.324913
43.7,1.508046768,665.6841718,24.352797
43.8,1.49728184,665.7015548,24.377699
43.9,1.474555882,665.6937621,24.399446
44,1.474795102,665.6574801,24.41787
44.1,1.415468389,665.59209,24.432802
44.2,1.43915123,665.4960259,24.44409
44.3,1.453026026,665.3675266,24.451597
44.4,1.440108113,665.2054091,24.455196
44.5,1.48938756,665.008782,24.454792
44.6,1.522639226,664.7753442,24.450298
44.7,1.548475052,664.5032054,24.441656
44.8,1.565459716,664.1907328,24.428833
44.9,1.47001069,663.8347101,24.41181
45,1.38102062,663.4314767,24.390602
45.1,1.324325334,662.9766609,24.36524
45.2,1.340831557,662.4654317,24.335781
45.3,1.397048402,661.8931629,24.302288
45.4,1.41953514,661.2549189,24.264862
45.5,1.444653304,660.545651,24.223602
45.6,1.453265247,659.7599613,24.178623
45.7,1.457331997,658.8920483,24.130064
45.8,1.449437717,657.93803,24.078051
45.9,1.403028917,656.8920224,24.022728
46,1.375279326,655.7462634,23.964243
46.1,1.374800884,654.4936215,23.902735
46.2,1.386283474,653.1248695,23.838337
46.3,1.407813329,651.6301616,23.771183
46.4,1.405421123,649.9994536,23.701389
46.5,1.407334888,648.2221264,23.629055
46.6,1.41594683,646.2879304,23.554256
46.7,1.409966315,644.1867682,23.477047
46.8,1.405660344,641.9093678,23.397461
46.9,1.403746579,639.4480028,23.315491
47,1.405660344,636.7946813,23.23111
47.1,1.410444756,633.9413338,23.144251
47.2,1.414033066,630.8800006,23.054825
47.3,1.432213832,627.6027191,22.962696
47.4,1.428147082,624.1010004,22.867729
47.5,1.431735391,620.3660431,22.769739
47.6,1.434606039,616.3895594,22.66853
47.7,1.423123449,612.164317,22.563894
47.8,1.429103964,607.682756,22.455601
47.9,1.413793845,602.9388696,22.343412
48,1.411401639,597.9284253,22.227095
48.1,1.402072035,592.6486978,22.106394
48.2,1.395134637,587.1000776,21.981062
48.3,1.393220872,581.2851737,21.850861
48.4,1.398962167,575.2083691,21.715549
48.5,1.343941425,568.8761581,21.574894
48.6,1.339157012,562.2985571,21.428663
48.7,1.307579891,555.4881528,21.276667
48.8,1.297293405,548.4609842,21.118713
48.9,1.295858081,541.2375932,20.954638
49,1.335090262,533.8415242,20.784309
49.1,1.350400381,526.2988827,20.607622
49.2,1.333415718,518.6374676,20.424492
49.3,1.274089005,510.8855731,20.2349
49.4,1.251841487,503.0708097,20.038824
49.5,1.217632939,495.2206287,19.8363
49.6,1.201605158,487.3622046,19.627365
49.7,1.19466776,479.5216853,19.412119
49.8,1.207585673,471.7229309,19.190651
49.9,1.215479954,463.9887354,18.963064
50,1.212848527,456.3403701,18.729492
50.1,1.217632939,448.7967778,18.490055
50.2,1.203518923,441.3748635,18.244856
50.3,1.197059966,434.0893929,17.99403
50.4,1.2102171,426.952575,17.737663
50.5,1.208781776,419.9735788,17.475832
50.6,1.224331116,413.1582499,17.208622
50.7,1.234617603,406.5099324,16.936079
50.8,1.242272663,400.0302687,16.658241
50.9,1.237966692,393.7201838,16.375118
51,1.224331116,387.5810951,16.08675
51.1,1.226962543,381.6129994,15.793128
51.2,1.224091896,375.8148643,15.494247
51.3,1.203518923,370.1855652,15.190134
51.4,1.240358898,364.7239392,14.880788
51.5,1.218589822,359.4276827,14.566213
51.6,1.249927722,354.2942673,14.246466
51.7,1.270979137,349.3212952,13.921589
51.8,1.274806667,344.5045111,13.59166
51.9,1.323607672,339.8380302,13.25676
52,1.325282217,335.3142999,12.917051
52.1,1.323129231,330.9234893,12.572683
52.2,1.29561886,326.652469,12.223841
52.3,1.304709244,322.4875747,11.870783
52.4,1.294661978,318.414018,11.513762
52.5,1.290356007,314.415069,11.153067
52.6,1.256147458,310.472782,10.78906
52.7,1.24131578,306.5687046,10.422091
52.8,1.238205912,302.684316,10.05254
52.9,1.282461726,298.8014743,9.680855
53,1.285093153,294.9031045,9.307468
53.1,1.306144567,290.9740705,8.932843
53.2,1.343941425,287.0010744,8.557447
53.3,1.337960909,282.9726883,8.181808
53.4,1.371212575,278.8799384,7.806412
53.5,1.369777251,274.7160334,7.431747
53.6,1.362839854,270.4759075,7.05834
53.7,1.349204278,266.1560954,6.686659
53.8,1.333415718,261.7552177,6.317153
53.9,1.328392085,257.2748558,5.950286
54,1.323368452,252.7187715,5.586442
54.1,1.316431054,248.0923612,5.225976
54.2,1.314517289,243.4028296,4.869187
54.3,1.295140419,238.6583928,4.516364
54.4,1.282940168,233.8689832,4.167697
54.5,1.270739916,229.0464379,3.823322
54.6,1.243947207,224.2037877,3.483359
54.7,1.238205912,219.3562908,3.147834
54.8,1.253755252,214.5195228,2.816718
54.9,1.27217524,209.7093109,2.489974
55,1.288203021,204.9439854,2.167478
55.1,1.27217524,200.2412169,1.849063
55.2,1.278155755,195.6196666,1.534565
55.3,1.277916535,191.0988871,1.223746
55.4,1.242511883,186.6964229,0.916349
55.5,1.243947207,182.4289764,0.612081
55.6,1.189165686,178.3128729,0.310664
55.7,1.165961286,174.3627283,0.011767
55.8,1.155674799,170.5891787,-0.284952
55.9,1.106156132,167.0021821,-0.579805
56,1.099457955,163.6080766,-0.87314
56.1,1.111897427,160.4092748,-1.165304
56.2,1.134384165,157.4071761,-1.456601
56.3,1.116442618,154.6000956,-1.747358
56.4,1.118595604,151.9848982,-2.037879
56.5,1.115485736,149.5573117,-2.328469
56.6,1.11692106,147.3105983,-2.61938
56.7,1.118356383,145.2362908,-2.910883
56.8,1.102328602,143.3238567,-3.20323
56.9,1.124097678,141.5603129,-3.496617
57,1.143235327,139.9302664,-3.791252
57.1,1.160698432,138.4173162,-4.087317
57.2,1.157827785,137.002636,-4.38493
57.3,1.192036333,135.6659337,-4.684215
57.4,1.150411946,134.3879524,-4.98525
57.5,1.155674799,133.1478666,-5.288095
57.6,1.17122414,131.9253572,-5.592735
57.7,1.171702581,130.701165,-5.899157
57.8,1.172898684,129.4561494,-6.207314
57.9,1.170267257,128.1720349,-6.517086
58,1.171702581,126.8297246,-6.828351
58.1,1.168831933,125.4103883,-7.140952
58.2,1.168592713,123.8977008,-7.454649
58.3,1.168592713,122.2742227,-7.769197
58.4,1.165961286,120.5247513,-8.084301
58.5,1.166918168,118.6371424,-8.399575
58.6,1.168831933,116.6011487,-8.714609
58.7,1.165482845,114.4097272,-9.028917
58.8,1.142517666,112.0584819,-9.341952
58.9,1.12481534,109.5452484,-9.653049
59,1.102328602,106.8699102,-9.961501
59.1,1.100893278,104.0341831,-10.266511
59.2,1.092998998,101.042815,-10.567157
59.3,1.085104718,97.90418034,-10.862454
59.4,1.121466251,94.63041728,-11.151332
59.5,1.157349344,91.23763604,-11.432592
59.6,1.16739661,87.7461144,-11.704989
59.7,1.245382531,84.17960665,-11.967184
59.8,2.683576879,80.56472017,-12.217782
59.9,2.962029676,76.93236495,-12.455303
60,3.706723456,73.31490396,-12.678263
60.1,3.832553501,69.74619293,-12.885152
60.2,5.789856587,66.26210378,-13.074439
60.3,7.605541068,62.89625645,-13.244656
60.4,7.969156405,59.68112729,-13.39438
60.5,8.872692675,56.6466557,-13.522261
60.6,8.876520205,53.81747634,-13.627091
60.7,8.916709268,51.21157416,-13.707809
60.8,8.970533907,48.83775972,-13.763526
60.9,8.997565837,46.69429031,-13.793583
61,8.998044278,44.76658266,-13.797562
61.1,8.994455969,43.02180925,-13.775311
61.2,8.988714674,41.42221754,-13.726963
61.3,8.984647923,39.9300547,-13.652966
61.4,8.986083247,38.50756788,-13.554062
61.5,8.987757791,37.11700422,-13.431314
61.6,8.988953894,35.72061087,-13.28607
61.7,8.990628439,34.28063499,-13.11996
61.8,8.990867659,32.75932373,-12.934896
61.9,8.990867659,31.11892424,-12.732984
62,8.990628439,29.32168366,-12.516537
62.1,8.990867659,27.32984915,-12.288003
62.2,8.990867659,25.10566786,-12.049969
62.3,8.991585321,22.61138695,-11.805048
62.4,8.992063762,0,-11.555868
62.5,8.992063762,0,-11.305048
62.6,8.992063762,0,-11.055099
62.7,8.992063762,0,-10.808407
62.8,8.992302983,0,-10.567233
62.9,9.007852323,0,-10.333604
63,9.017660368,0,-10.109326
63.1,9.022923222,0,-9.895985
63.2,9.03009984,0,-9.694881
63.3,9.057849432,0,-9.507058
63.4,9.198989596,0,-9.333273
63.5,9.963777908,0,-9.17405
63.6,10.0403285,0,-9.02964
63.7,10.06185836,0,-8.900064
63.8,9.78244868,0,-8.785134
63.9,9.691784066,0,-8.68446
64,9.444429949,0,-8.597485
64.1,9.405676209,0,-8.523514
64.2,8.357650687,0,-8.461716
64.3,6.981175258,0,-8.411162
64.4,7.009881732,0,-8.370844
64.5,6.887639997,0,-8.33969
64.6,7.28067947,0,-8.316584
64.7,7.250776893,0,-8.300377
64.8,7.19503849,0,-8.289913
64.9,7.151500337,0,-8.284033
65,7.14073541,0,-8.281591
65.1,7.135472556,0,-8.281476
65.2,7.135711777,0,-8.28261
65.3,7.135472556,0,-8.283972
65.4,7.13308035,0,-8.284608
65.5,7.130209702,0,-8.283639
65.6,7.12542529,0,-8.28027
65.7,7.123750746,0,-8.273794
65.8,7.124468408,0,-8.263607
65.9,7.126142952,0,-8.249195
66,7.127099834,0,-8.230137
66.1,7.127099834,0,-8.206108
66.2,7.131166585,0,-8.176866
66.3,7.13331957,0,-8.14224
66.4,7.165375133,0,-8.102133
66.5,7.167767339,0,-8.056498
66.6,7.328523594,0,-8.005334
66.7,7.631376894,0,-7.948665
66.8,9.777185827,0,-7.886539
66.9,10.08410588,0,-7.819013
67,10.50369884,0,-7.746138
67.1,10.52427181,0,-7.667969
67.2,10.56302555,0,-7.584548
67.3,10.69244391,0,-7.495901
67.4,10.77856333,0,-7.402062
67.5,10.59244969,0,-7.303057
67.6,10.57905333,0,-7.198921
67.7,10.60991279,0,-7.089718
67.8,10.73622128,0,-6.975534
67.9,10.77952021,0,-6.856503
68,10.81731707,0,-6.73281
68.1,10.82329758,0,-6.60469
68.2,11.00845434,0,-6.472482
68.3,11.38331305,0,-6.336562
68.4,11.03261562,0,-6.197386
68.5,10.50967935,0,-6.055477
68.6,10.23816396,0,-5.911416
68.7,10.2235715,0,-5.76583
68.8,10.21902631,0,-5.619365
68.9,10.21950475,0,-5.472716
69,10.22046163,0,-5.326538
69.1,10.22165773,0,-5.181466
69.2,10.22811669,0,-5.038093
69.3,10.23840318,0,-4.896938
69.4,10.28409431,0,-4.75844
69.5,10.46877263,0,-4.622914
69.6,10.78478306,0,-4.4906
69.7,12.45286842,0,-4.36158
69.8,12.85858659,0,-4.235817
69.9,13.45209294,0,-4.113149
70,13.9795744,0,-3.993289
70.1,14.66733367,0,-3.875837
70.2,14.90870728,0,-3.760319
70.3,14.90990338,0,-3.646158
70.4,14.94124128,0,-3.532732
70.5,14.95439841,0,-3.419384
70.6,15.2117998,0,-3.305446
70.7,15.34337114,0,-3.190268
70.8,14.12717352,0,-3.07322
70.9,14.25754876,0,-2.953753
71,14.35228012,0,-2.831358
71.1,14.77737516,0,-2.705618
71.2,14.75871595,0,-2.576202
71.3,14.66350614,0,-2.44287
71.4,14.66709445,0,-2.305463
71.5,14.32022456,0,-2.163949
71.6,14.29295341,0,-2.018345
71.7,14.52882494,0,-1.868754
71.8,15.39336825,0,-1.715349
71.9,15.39767422,0,-1.558361
72,15.63569873,0,-1.398069
72.1,15.67277793,0,-1.234779
72.2,15.55197151,0,-1.068862
72.3,15.26993041,0,-0.900677
72.4,15.74621866,0,-0.730604
72.5,15.85410715,0,-0.559036
72.6,16.06318597,0,-0.386365
72.7,16.09978673,0,-0.212969
72.8,16.16916071,0,-0.039262
72.9,16.18327472,0,0.134389
73,16.23829546,0,0.307617
73.1,16.56220018,0,0.480061
73.2,16.58994977,0,0.651371
73.3,16.68133205,0,0.821212
73.4,16.71865046,0,0.989271
73.5,17.01959,0,1.155207
73.6,18.74867662,0,1.318732
73.7,17.66070125,0,1.479556
73.8,17.52578082,0,1.637405
73.9,17.08298346,0,1.792013
74,16.7097993,0,1.943132
74.1,16.13064619,0,2.090536
74.2,15.91773984,0,2.233981
74.3,15.91534763,0,2.373271
74.4,15.87109182,0,2.508217
74.5,15.90936712,0,2.638643
74.6,15.5691954,0,2.764392
74.7,15.34911243,0,2.885336
74.8,15.32925712,0,3.001331
74.9,15.10319364,0,3.11228
75,14.90727195,0,3.218095
75.1,14.51255793,0,3.318699
75.2,14.50681664,0,3.414029
75.3,14.51423248,0,3.504032
75.4,14.48528678,0,3.588676
75.5,15.07472638,0,3.667912
75.6,15.11252324,0,3.741724
75.7,14.8776086,0,3.810095
75.8,13.87431733,0,3.873019
75.9,13.84752462,0,3.930495
76,13.54730275,0,3.982535
76.1,13.54658508,0,4.029151
76.2,13.61859049,0,4.070378
76.3,13.52912198,0,4.106257
76.4,12.96121224,0,4.136842
76.5,13.1894287,0,4.162198
76.6,13.8623563,0,4.182405
76.7,14.14607195,0,4.197559
76.8,14.08913744,0,4.207765
76.9,14.50490288,0,4.213143
77,14.46184316,0,4.21383
77.1,14.08889822,0,4.209975
77.2,14.05134059,0,4.201739
77.3,13.9865118,0,4.189296
77.4,13.94464819,0,4.17283
77.5,13.59036246,0,4.152538
77.6,10.81851317,0,4.128627
77.7,10.77880255,0,4.10131
77.8,10.64388212,0,4.070812
77.9,10.57594347,0,4.037364
78,10.57546502,0,4.001204
78.1,10.71660519,0,3.962583
78.2,10.86659652,0,3.921749
78.3,11.17375579,0,3.878958
78.4,11.27040092,0,3.834467
78.5,11.2110742,0,3.788528
78.6,11.26824793,0,3.74139
78.7,11.4744561,0,3.693282
78.8,11.60937653,0,3.644431
78.9,11.46273429,0,3.595025
79,11.18188929,0,3.54523
79.1,11.22327445,0,3.495179
79.2,11.41345485,0,3.444967
79.3,11.45723222,0,3.394643
79.4,12.134705,0,3.344224
79.5,11.80338445,0,3.293674
79.6,11.86486415,0,3.24291
79.7,12.14523071,0,3.191807
79.8,12.15240733,0,3.140203
79.9,12.15360343,0,3.087891
80,12.14020708,0,3.03463
80.1,12.08638244,0,2.980164
80.2,11.96677213,0,2.924198
80.3,11.96461915,0,2.866426
80.4,11.96437993,0,2.80653
80.5,11.52038646,0,2.744187
80.6,10.41446955,0,2.679071
80.7,9.983872439,0,2.610877
80.8,9.977174262,0,2.539296
80.9,9.811633595,0,2.464043
81,10.00994749,0,2.384855
81.1,10.08482354,0,2.301496
81.2,10.10037288,0,2.213766
81.3,10.04894045,0,2.121492
81.4,9.99176672,0,2.024567
81.5,9.758048177,0,1.922908
81.6,9.75135,0,1.816493
81.7,9.744651823,0,1.705352
81.8,9.714988466,0,1.589573
81.9,9.669536549,0,1.469303
82,9.654944091,0,1.344743
82.1,9.487968101,0,1.216183
82.2,9.327451067,0,1.083943
82.3,9.23559035,0,0.948411
82.4,9.409264518,0,0.810027
82.5,9.410939062,0,0.669281
82.6,9.904451195,0,0.526689
82.7,9.676234726,0,0.382833
82.8,9.988656852,0,0.23828
82.9,10.04056773,0,0.09362
83,10.10085132,0,-0.050567
83.1,10.20562995,0,-0.193712
83.2,9.986264646,0,-0.335284
83.3,9.883878222,0,-0.474806
83.4,8.811452197,0,-0.611824
83.5,8.267942956,0,-0.745991
83.6,8.074413477,0,-0.877032
83.7,7.608890156,0,-1.004765
83.8,7.59477614,0,-1.129101
83.9,7.589034845,0,-1.250067
84,7.589274066,0,-1.367763
84.1,7.596450684,0,-1.482416
84.2,7.642141822,0,-1.594336
84.3,7.645490911,0,-1.703914
84.4,7.658648045,0,-1.81161
84.5,7.686397636,0,-1.917935
84.6,7.942842137,0,-2.023446
84.7,7.946191226,0,-2.128686
84.8,7.903849177,0,-2.234218
84.9,7.263216365,0,-2.34057
85,6.996485378,0,-2.448224
85.1,6.894338174,0,-2.557597
85.2,6.866827803,0,-2.669034
85.3,6.841948859,0,-2.78275
85.4,6.819701342,0,-2.898887
85.5,6.829270167,0,-3.017461
85.6,7.210348609,0,-3.138368
85.7,8.073695815,0,-3.261382
85.8,8.45597036,0,-3.386163
85.9,8.662178532,0,-3.512272
86,8.749015616,0,-3.639143
86.1,8.8590571,0,-3.766156
86.2,9.229370614,0,-3.892617
86.3,8.933454711,0,-4.017786
86.4,8.662656973,0,-4.140897
86.5,8.659068664,0,-4.261181
86.6,7.994753011,0,-4.377901
86.7,7.938296946,0,-4.490322
86.8,7.28833453,0,-4.597796
86.9,7.23403145,0,-4.699739
87,7.394070043,0,-4.79565
87.1,7.371822525,0,-4.885114
87.2,8.631797514,0,-4.967825
87.3,8.637538808,0,-5.043555
87.4,8.737054585,0,-5.112188
87.5,8.856664893,0,-5.173691
87.6,8.869343586,0,-5.228113
87.7,8.868625924,0,-5.275576
87.8,8.869343586,0,-5.316264
87.9,8.873410337,0,-5.35041
88,8.877716308,0,-5.378274
88.1,8.87460644,0,-5.400158
88.2,8.907618885,0,-5.41637
88.3,9.081293052,0,-5.427226
88.4,9.072920331,0,-5.433039
88.5,9.05306502,0,-5.434116
88.6,8.91336018,0,-5.430753
88.7,9.001154146,0,-5.423233
88.8,9.141098207,0,-5.41182
88.9,9.222672437,0,-5.396768
89,9.756134412,0,-5.378313
89.1,11.08141663,0,-5.356681
89.2,14.41375982,0,-5.332088
89.3,18.12215782,0,-5.30475
89.4,18.17574324,0,-5.274876
89.5,18.16545675,0,-5.24268
89.6,18.03699528,0,-5.208377
89.7,17.68869006,0,-5.172193
89.8,17.51812576,0,-5.13436
89.9,17.43990062,0,-5.095119
90,17.40473519,0,-5.054723
90.1,17.37746404,0,-5.01343
90.2,17.40042922,0,-4.971499
90.3,17.3989939,0,-4.929192
90.4,17.3989939,0,-4.886765
90.5,17.39349182,0,-4.844463
90.6,17.39253494,0,-4.802525
90.7,17.38344456,0,-4.761158
90.8,17.44205361,0,-4.720548
90.9,17.47889358,0,-4.680848
91,17.3989939,0,-4.642174
91.1,17.33153368,0,-4.604604
91.2,16.92772928,0,-4.568168
91.3,16.94375706,0,-4.532861
91.4,16.93849421,0,-4.498624
91.5,17.19541715,0,-4.465359
91.6,17.23153946,0,-4.432922
91.7,17.27842671,0,-4.401135
91.8,17.39851546,0,-4.369782
91.9,17.86045047,0,-4.338627
92,19.61585135,0,-4.307407
92.1,19.81225148,0,-4.275846
92.2,19.80794551,0,-4.243663
92.3,19.73330867,0,-4.210582
92.4,20.06510767,0,-4.176333
92.5,20.35934903,0,-4.140665
92.6,20.34068982,0,-4.103358
92.7,20.30480673,0,-4.064219
92.8,20.30145764,0,-4.023088
92.9,20.30073998,0,-3.979855
93,20.25217819,0,-3.934443
93.1,19.57733683,0,-3.886818
93.2,17.36813444,0,-3.837001
93.3,13.69514109,0,-3.785038
93.4,13.83986956,0,-3.731021
93.5,13.83604203,0,-3.675068
93.6,13.82886541,0,-3.617321
93.7,13.80374725,0,-3.557944
93.8,13.79250388,0,-3.497105
93.9,13.78484882,0,-3.43499
94,14.06330162,0,-3.371766
94.1,14.09272575,0,-3.307595
94.2,13.99368842,0,-3.242618
94.3,14.08841978,0,-3.176957
94.4,14.16879791,0,-3.110706
94.5,14.56542569,0,-3.043921
94.6,16.48014751,0,-2.976648
94.7,16.48660646,0,-2.908882
94.8,16.63229182,0,-2.840597
94.9,17.44803412,0,-2.771737
95,17.47004242,0,-2.702225
95.1,17.681035,0,-2.631959
95.2,17.60926882,0,-2.560841
95.3,17.67122696,0,-2.488745
95.4,17.6391714,0,-2.415551
95.5,18.43745059,0,-2.34114
95.6,19.08167171,0,-2.265401
95.7,19.32184921,0,-2.188234
95.8,19.51466103,0,-2.109554
95.9,19.2079802,0,-2.029314
96,17.38320534,0,-1.947472
96.1,17.48224267,0,-1.864023
96.2,17.56788365,0,-1.778991
96.3,17.62003375,0,-1.692435
96.4,17.64252048,0,-1.60444
96.5,17.37483261,0,-1.515146
96.6,17.51573356,0,-1.424711
96.7,17.51477667,0,-1.333339
96.8,17.4372692,0,-1.241266
96.9,17.3920565,0,-1.148768
97,17.15833796,0,-1.056152
97.1,17.14135329,0,-0.963753
97.2,17.0753284,0,-0.871957
97.3,17.04327284,0,-0.781156
97.4,16.88395191,0,-0.691777
97.5,17.04925335,0,-0.604266
97.6,17.24326127,0,-0.519093
97.7,17.25019867,0,-0.436738
97.8,17.25091633,0,-0.357718
97.9,17.24278283,0,-0.282542
98,17.10953695,0,-0.211741
98.1,17.17077743,0,-0.145857
98.2,17.02533129,0,-0.085444
98.3,16.94016875,0,-0.031067
98.4,16.871034,0,0.016701
98.5,16.51196385,0,0.057265
98.6,14.64747836,0,0.090034
98.7,14.81947799,0,0.114404
98.8,14.73455467,0,0.129765
98.9,13.72504366,0,0.135505
99,13.675525,0,0.131016
99.1,13.37649923,0,0.115704
99.2,13.22890011,0,0.088998
99.3,13.16143989,0,0.050357
99.4,13.3657343,0,-0.000706
99.5,12.14786214,0,-0.064615
99.6,11.29193077,0,-0.141708
99.7,11.3177666,0,-0.232229
99.8,11.63329859,0,-0.336273
99.9,11.96150928,0,-0.453811
100,12.04547571,0,-0.584647
0,15.23237277,29.78985095,-2.667736
0.1,15.2443338,34.04049838,-2.88875
0.2,15.22902368,38.51345944,-3.121677
0.3,15.22208628,43.17787946,-3.366021
0.4,15.3847563,47.98759441,-3.620996
0.5,15.55747359,52.88083121,-3.88552
0.6,15.48809961,57.78558528,-4.158228
0.7,15.32399427,62.622601,-4.437493
0.8,15.35198308,67.31209106,-4.721448
0.9,14.20276724,71.78154627,-5.00804
1,13.77360545,75.96961946,-5.295064
1.1,13.46477163,79.83442029,-5.580228
1.2,13.44778697,83.354234,-5.861209
1.3,13.5618952,86.52601889,-6.135711
1.4,13.84991683,89.36474475,-6.401535
1.5,14.78455178,91.89988727,-6.656627
1.6,14.82737227,94.17029372,-6.899139
1.7,13.24564555,96.21910513,-7.127473
1.8,13.28679149,98.09006367,-7.34031
1.9,13.94775806,99.82556299,-7.536642
2,15.34695945,101.4647019,-7.715782
2.1,15.4055685,103.0412087,-7.877362
2.2,14.21090074,104.5826529,-8.02133
2.3,13.19110325,106.1113385,-8.147921
2.4,13.2021074,107.6452506,-8.257633
2.5,13.19780143,109.1988937,-8.351178
2.6,13.1870365,110.7861428,-8.429443
2.7,13.59012324,112.4221066,-8.493434
2.8,16.92772928,114.1242201,-8.54422
2.9,16.9430394,115.9127549,-8.582891
3,17.22101376,117.8087173,-8.610491
3.1,17.30832928,119.834578,-8.627994
3.2,16.8571592,122.0142731,-8.636253
3.3,16.86242205,124.3712626,-8.635976
3.4,16.72989383,126.9274167,-8.627712
3.5,16.7504668,129.7017403,-8.611836
3.6,17.27770904,132.7085887,-8.588543
3.7,17.56118547,135.957385,-8.55787
3.8,17.57003664,139.4508494,-8.519703
3.9,17.52051797,143.1862271,-8.473797
4,17.51238447,147.152328,-8.419816
4.1,18.05063086,151.3307616,-8.357357
4.2,19.4620325,155.6952846,-8.285986
4.3,20.66028856,160.2084287,-8.205274
4.4,20.66579064,164.8243507,-8.114826
4.5,20.67631635,169.4883911,-8.01431
4.6,20.71076411,174.1393196,-7.903479
4.7,20.73061943,178.7122799,-7.782189
4.8,20.76482797,183.1408903,-7.650401
4.9,20.65287273,187.3616615,-7.508187
5,20.19524369,191.3180094,-7.35573
5.1,19.84215406,194.9603922,-7.193306
5.2,19.84454626,198.2518534,-7.021285
5.3,19.80794551,201.1683795,-6.8401
5.4,19.3402692,203.6980289,-6.650245
5.5,18.24200735,205.8425379,-6.452247
5.6,18.11043601,207.6166814,-6.246656
5.7,18.10110641,209.0467784,-6.03403
5.8,18.09201602,210.1722113,-5.814914
5.9,18.08172954,211.0432346,-5.589838
6,18.07814123,211.7199659,-5.359301
6.1,18.01570465,212.2726173,-5.123775
6.2,17.61237869,212.77769,-4.883692
6.3,14.42667773,213.3131823,-4.63945
6.4,14.3357739,213.955135,-4.391411
6.5,13.87264279,214.774765,-4.139902
6.6,13.76068754,215.8373066,-3.885208
6.7,13.79130778,217.2045178,-3.627593
6.8,13.86450928,218.9347561,-3.36728
6.9,13.85278747,221.0824683,-3.10447
7,13.80398647,223.6972758,-2.839335
7.1,13.0327392,226.8248332,-2.572021
7.2,12.73443109,230.5085726,-2.30266
7.3,12.71983863,234.787218,-2.031365
7.4,12.52415617,239.6966316,-1.758248
7.5,12.36890199,245.2706526,-1.483415
7.6,11.50316258,251.5405267,-1.206981
7.7,8.624142454,258.5344514,-0.92908
7.8,5.161184806,266.2756498,-0.649871
7.9,5.137023524,274.7791901,-0.369552
8,5.083677326,284.0499133,-0.088359
8.1,4.917658218,294.0751999,0.193416
8.2,4.819338545,304.8245157,0.475429
8.3,4.198561044,316.2466959,0.757286
8.4,3.701699823,328.2715794,1.038536
8.5,2.297714024,340.8118824,1.318682
8.6,2.25369743,353.7649551,1.597189
8.7,2.231928354,367.0216737,1.873484
8.8,2.285274552,380.4665732,2.146981
8.9,2.274988065,393.9831985,2.417075
9,2.267333005,407.4587853,2.683175
9.1,2.257764181,420.7875644,2.944695
9.2,2.264223137,433.8735794,3.201072
9.3,2.278576374,446.6315581,3.451783
9.4,2.322592968,458.9855345,3.696331
9.5,2.348189574,470.8714413,3.934272
9.6,2.381919681,482.2376374,4.165195
9.7,5.354714285,493.0430224,4.388742
9.8,7.717735537,503.2581497,4.604603
9.9,10.07501549,512.8623143,4.81251
10,10.54484479,521.8394797,5.012247
10.1,10.65584315,530.1804737,5.203648
10.2,10.89649909,537.8775629,5.386594
10.3,13.03943738,544.9294698,5.561025
10.4,21.32627876,551.3372191,5.726927
10.5,22.03891698,557.1042389,5.884351
10.6,22.16881377,562.2379091,6.033405
10.7,22.20445765,566.7491226,6.174255
10.8,22.23890541,570.6527648,6.30714
10.9,22.26115293,573.9670182,6.432355
11,22.26617656,576.7152284,6.550271
11.1,22.26665501,578.92287,6.661324
11.2,22.26689423,580.6187134,6.766013
11.3,22.40181465,581.8361226,6.864908
11.4,22.43530554,582.612008,6.958638
11.5,22.43889385,582.9868738,7.047882
11.6,22.44511359,583.006082,7.133371
11.7,22.44607047,582.718753,7.215866
11.8,22.44894112,582.1784144,7.296156
11.9,22.45396475,581.4421139,7.375036
12,22.46688266,580.5711806,7.453295
12.1,22.48960862,579.6310451,7.531707
12.2,22.50013433,578.6878431,7.611001
12.3,22.49582836,577.8077339,7.691862
12.4,22.50491874,577.0553199,7.774904
12.5,22.52979768,576.4913425,7.860668
12.6,22.53410366,576.1695861,7.949604
12.7,22.58984206,576.1341837,8.042072
12.8,22.61519944,576.4196646,8.138333
12.9,22.61759165,577.0511564,8.238549
13,22.62644281,578.0402997,8.342788
13.1,22.6611298,579.3877742,8.451028
13.2,22.1262325,581.084142,8.563164
13.3,21.33202006,583.109058,8.679026
13.4,20.48135154,585.4337705,8.798382
13.5,20.28877895,588.0233773,8.920952
13.6,20.24787222,590.8371934,9.046426
13.7,20.06749988,593.8317643,9.174466
13.8,18.54199,596.9621195,9.304723
13.9,7.875381924,600.1860182,9.436834
14,5.900137291,603.4623555,9.570442
14.1,5.385095303,606.7522568,9.705187
14.2,5.246586566,610.022612,9.840714
14.3,5.114297565,613.2466443,9.976674
14.4,5.020283863,616.4022279,10.112729
14.5,4.995404919,619.4736541,10.24855
14.6,5.002342317,622.4495196,10.383821
14.7,5.020044642,625.3205234,10.518237
14.8,4.335156016,628.077489,10.651518
14.9,4.244252182,630.7098691,10.783404
15,4.227267518,633.2065331,10.913655
15.1,4.201910133,635.5586134,11.042068
15.2,4.201192471,637.7590531,11.168456
15.3,4.186121572,639.8016626,11.29267
15.4,4.162677952,641.682172,11.414584
15.5,4.094260855,643.3971674,11.534109
15.6,3.955034456,644.9426561,11.651172
15.7,3.894990082,646.3138929,11.765731
15.8,3.888052684,647.5049926,11.877762
15.9,3.877048535,648.5077934,11.987258
16,3.753610697,649.3125111,12.094226
16.1,3.767963934,649.9113505,12.19868
16.2,3.403630935,650.2994589,12.300638
16.3,3.28928348,650.4749384,12.400126
16.4,3.252682726,650.4405537,12.49715
16.5,3.557689012,650.2053824,12.591734
16.6,3.315836969,649.7838118,12.683878
16.7,3.279714655,649.1986507,12.77358
16.8,3.02925067,648.4777588,12.860824
16.9,3.040733259,647.6516766,12.945594
17,2.988822385,646.7511787,13.027856
17.1,3.030446773,645.8055986,13.107581
17.2,3.322056705,644.8422664,13.184726
17.3,3.364159533,643.8836163,13.259261
17.4,3.35148084,642.95122,13.33115
17.5,3.348849414,642.063365,13.400373
17.6,3.36296343,641.2362693,13.466917
17.7,3.438317924,640.4860096,13.530789
17.8,3.434729615,639.8262456,13.592015
17.9,3.462957648,639.2656679,13.650648
18,3.610078327,638.8107797,13.706756
18.1,3.739496681,638.4610682,13.760449
18.2,3.733755386,638.2113391,13.811851
18.3,3.762222639,638.0515178,13.861121
18.4,3.750261609,637.9670454,13.90844
18.5,3.814372734,637.9404051,13.954011
18.6,3.819396367,637.9523157,13.998058
18.7,3.83996934,637.9837256,14.040813
18.8,4.01460039,638.0176927,14.082521
18.9,4.216981032,638.0405703,14.123421
19,4.254777889,638.0413976,14.163749
19.1,4.314104602,638.0115951,14.203724
19.2,4.314583043,637.946005,14.243542
19.3,4.392568964,637.8433494,14.283381
19.4,4.465292032,637.703795,14.323373
19.5,4.560023396,637.5263782,14.363611
19.6,4.537775879,637.3110252,14.404149
19.7,4.550933013,637.0575643,14.444981
19.8,4.528207054,636.7667954,14.486057
19.9,4.53442679,636.4405554,14.527269
20,4.238032446,636.0805426,14.568453
20.1,4.23181271,635.6906201,14.609403
20.2,4.188752999,635.2780152,14.649852
20.3,4.150716921,634.8492344,14.689509
20.4,4.070578014,634.4138712,14.728039
20.5,4.064119058,633.9817924,14.765091
20.6,3.989960667,633.562352,14.800303
20.7,3.732320062,633.1671944,14.833315
20.8,3.846428296,632.8082948,14.863786
20.9,4.724128739,632.4985452,14.891404
21,5.192044266,632.2502061,14.915904
21.1,6.850560801,632.0740496,14.937077
21.2,7.092173624,631.976888,14.954776
21.3,12.72581915,631.9629873,14.968941
21.4,14.33625234,632.0361934,14.979584
21.5,14.72977025,632.1982844,14.986801
21.6,14.70967572,632.4513539,14.990767
21.7,14.79962267,632.7976681,14.99173
21.8,15.14505725,633.2408479,14.990001
21.9,15.19218371,633.7872732,14.985937
22,15.446236,634.4437009,14.979943
22.1,16.21461262,635.2157934,14.972444
22.2,16.37082369,636.1098287,14.963874
22.3,19.54575971,637.1292195,14.954665
22.4,19.86679378,638.2728807,14.945237
22.5,20.17012552,639.5338978,14.935983
22.6,20.25146053,640.8988439,14.927262
22.7,20.25839793,642.3483225,14.919397
22.8,20.26079013,643.8580317,14.912663
22.9,20.24404469,645.4001696,14.907299
23,20.23232288,646.9461248,14.903484
23.1,20.2301699,648.4687613,14.901367
23.2,20.22586392,649.9431445,14.901045
23.3,20.22706003,651.3495445,14.902573
23.4,20.22347172,652.6724678,14.905972
23.5,20.22825613,653.9005375,14.91122
23.6,20.22825613,655.0281615,14.918262
23.7,20.22729925,656.051551,14.927001
23.8,20.22706003,656.9706694,14.937308
23.9,20.22395016,657.788744,14.949018
24,20.21773042,658.508409,14.961926
24.1,20.21796964,659.1328554,14.975799
24.2,20.21820886,659.6662259,14.990366
24.3,20.17514915,660.1117233,15.005332
24.4,19.98472954,660.4740754,15.020379
24.5,19.87564494,660.7575052,15.035162
24.6,19.3622775,660.965504,15.049332
24.7,19.23477291,661.102812,15.062528
24.8,16.09882984,661.173944,15.0744
24.9,14.69532249,661.1823748,15.084606
25,14.39270841,661.131881,15.092831
25.1,14.69412638,661.0249195,15.098798
25.2,20.02802847,660.8591126,15.102271
25.3,27.65486018,660.6297525,15.103083
25.4,28.11153233,660.3290698,15.101121
25.5,27.98307086,659.9463376,15.096362
25.6,27.63333032,659.4696823,15.088853
25.7,27.60821216,658.8877176,15.078731
25.8,25.44230869,658.1906826,15.066216
25.9,25.22796702,657.3722902,15.051606
26,24.97845992,656.4289952,15.035275
26.1,24.91387035,655.3626147,15.017668
26.2,24.9098036,654.1792478,14.999286
26.3,24.89879945,652.8894611,14.980676
26.4,24.89784257,651.5083143,14.962425
26.5,24.89066595,650.0524907,14.945138
26.6,24.89090517,648.5427454,14.929437
26.7,24.8935366,647.0006757,14.915931
26.8,24.89377582,645.4447607,14.905225
26.9,24.89760335,643.8923866,14.897883
27,24.89856023,642.3592765,14.894436
27.1,24.89856023,640.857732,14.895353
27.2,24.89951711,639.3982203,14.901048
27.3,24.90262698,637.9881409,14.911853
27.4,24.91147814,636.6328845,14.92802
27.5,24.91769788,635.3377966,14.949716
27.6,24.92128619,634.1064335,14.977016
27.7,24.93396488,632.9418178,15.009895
27.8,24.95094955,631.8477018,15.048245
27.9,24.96171447,630.8284272,15.091868
28,25.1105097,629.8941597,15.140479
28.1,25.2509322,629.0584708,15.193725
28.2,25.43991649,628.3379095,15.251181
28.3,25.51383566,627.7495611,15.312375
28.4,28.57227124,627.3104294,15.376784
28.5,30.86328709,627.0371413,15.443852
28.6,31.54745805,626.9463823,15.513004
28.7,28.73494126,627.0587775,15.583642
28.8,25.3066706,627.3944919,15.655175
28.9,25.16983641,627.9739313,15.727006
29,25.49374113,628.81444,15.798557
29.1,25.86309776,629.9277207,15.869275
29.2,25.94323666,631.3164451,15.93863
29.3,25.92266369,632.9703152,16.006128
29.4,25.91907538,634.8659516,16.071327
29.5,25.92194603,636.9657179,16.133812
29.6,25.93342862,639.2237184,16.193237
29.7,26.11834616,641.5862502,16.24929
29.8,26.13485238,643.9937566,16.301729
29.9,26.15518613,646.383507,16.350357
30,26.42335244,648.6925554,16.395031
30.1,26.42622309,650.8626932,16.435675
30.2,26.42526621,652.8415734,16.47225
30.3,26.422874,654.5891838,16.504778
30.4,26.41880725,656.0786839,16.533331
30.5,26.41737193,657.2951901,16.558022
30.6,26.41785037,658.2345183,16.579012
30.7,26.42191712,658.9013823,16.596498
30.8,26.42048179,659.3067612,16.610714
30.9,26.41210907,659.4653469,16.621929
31,26.40684622,659.3948625,16.63044
31.1,26.48698513,659.1149829,16.636568
31.2,26.68673434,658.6498601,16.640654
31.3,28.15387438,658.0289683,16.643049
31.4,28.41725628,657.2863353,16.644119
31.5,28.28090053,656.4600642,16.64422
31.6,28.20363227,655.5869474,16.643721
31.7,28.0438329,654.7015696,16.642954
31.8,28.03880927,653.8320556,16.642263
31.9,24.79736991,652.9999763,16.641954
32,22.01954011,652.2199936,16.642323
32.1,20.87391258,651.5010248,16.643625
32.2,20.29763011,650.8492629,16.646103
32.3,14.83526655,650.2650931,16.649958
32.4,14.4611255,649.7493744,16.655357
32.5,13.88651758,649.2999333,16.662437
32.6,12.95547094,648.9136079,16.671301
32.7,12.63946051,648.5885439,16.682013
32.8,12.5918556,648.3229623,16.694599
32.9,12.5837221,648.1153469,16.709057
33,12.57415328,647.9680731,16.725334
33.1,12.53444266,647.8841165,16.743357
33.2,12.15838785,647.8714049,16.763002
33.3,12.1160458,647.9386236,16.784122
33.4,12.0777705,648.0943327,16.806522
33.5,11.47134623,648.3474332,16.829985
33.6,11.47780519,648.703341,16.854252
33.7,11.47326,649.1626094,16.879045
33.8,11.47302078,649.7225974,16.904055
33.9,11.47134623,650.3754499,16.928953
34,11.50292336,651.1077769,16.953392
34.1,11.57947395,651.9011921,16.977028
34.2,13.608304,652.7322256,16.999498
34.3,14.48409068,653.5726576,17.020466
34.4,15.16443412,654.3921273,17.0396
34.5,16.36699616,655.1612788,17.056606
34.6,23.51036299,655.8514467,17.071228
34.7,23.35869712,656.4366904,17.083254
34.8,21.58750767,656.893302,17.092548
34.9,21.41335507,657.2004843,17.099026
35,21.49253709,657.3424993,17.102674
35.1,21.4949293,657.3080915,17.103563
35.2,21.48488203,657.0919968,17.101822
35.3,21.38680158,656.6935762,17.097647
35.4,21.25690478,656.1186746,17.091301
35.5,21.24039856,655.3784069,17.083088
35.6,21.23848479,654.4896193,17.073357
35.7,21.23920246,653.4750342,17.062487
35.8,21.23082974,652.3586664,17.050869
35.9,21.22461,651.1667146,17.038904
36,21.22030403,649.9243149,17.026989
36.1,21.21910792,648.6549332,17.015512
36.2,21.2176726,647.3783457,17.004835
36.3,21.21815104,646.1091253,16.995304
36.4,21.21934715,644.8571073,16.987244
36.5,21.21958637,643.6274945,16.980944
36.6,21.21815104,642.4188692,16.976675
36.7,21.21169209,641.2234558,16.974691
36.8,21.20212326,640.0317246,16.97522
36.9,21.19901339,638.8326873,16.978479
37,21.19901339,637.6159394,16.984673
37.1,21.19614275,636.3748018,16.993996
37.2,21.19949183,635.1055709,17.00663
37.3,21.19949183,633.8070989,17.022755
37.4,21.20308014,632.484503,17.042543
37.5,21.17891886,631.1463138,17.066149
37.6,21.13944746,629.8042834,17.093716
37.7,19.85602885,628.4738078,17.125362
37.8,19.24912615,627.1731086,17.161186
37.9,18.7438922,625.922856,17.201241
38,17.5463538,624.7463823,17.245543
38.1,4.871249419,623.6669848,17.294069
38.2,4.231573489,622.7094097,17.346725
38.3,3.625866888,621.8959797,17.403372
38.4,3.176371349,621.247386,17.463797
38.5,2.515165564,620.7837324,17.527733
38.6,2.070932879,620.5211264,17.594847
38.7,2.399382786,620.4714168,17.664734
38.8,3.441188572,620.6415835,17.736946
38.9,3.384014844,621.0324651,17.810982
39,3.371575372,621.6395037,17.886295
39.1,3.344543443,622.4550116,17.962313
39.2,3.332582412,623.4679619,18.038448
39.3,3.334017735,624.6637005,18.114105
39.4,4.612173491,626.0275166,18.1887
39.5,6.838599771,627.5416939,18.261658
39.6,7.017297571,629.1875259,18.332447
39.7,7.036674441,630.9429929,18.400574
39.8,7.057725856,632.7844925,18.46559
39.9,7.078059608,634.6881868,18.527107
40,7.076624284,636.6304151,18.584795
40.1,7.081887138,638.5913778,18.638395
40.2,7.118248672,640.552158,18.687706
40.3,7.141453071,642.4970725,18.732592
40.4,7.148390469,644.413574,18.772991
40.5,7.148151249,646.2914244,18.808893
40.6,7.142409954,648.1224032,18.840361
40.7,7.139539306,649.8991608,18.867496
40.8,7.146237484,651.6137396,18.890465
40.9,7.137625542,653.2596322,18.909481
41,7.141453071,654.8298224,18.924799
41.1,7.119683995,656.3153455,18.936718
41.2,7.108679847,657.7077114,18.945566
41.3,7.107722964,658.9980623,18.951704
41.4,7.104134655,660.1750897,18.955524
41.5,7.100067905,661.2276943,18.957439
41.6,7.095761934,662.1461232,18.95788
41.7,7.100067905,662.9198475,18.957291
41.8,7.110115171,663.53992,18.956135
41.9,7.121119319,664.0005075,18.954872
42,7.118966333,664.296805,18.953964
42.1,7.120640878,664.4256126,18.95388
42.2,6.983089023,664.3889527,18.955078
42.3,6.55536256,664.1909637,18.957994
42.4,6.541248544,663.8421385,18.963055
42.5,6.532875822,663.353784,18.970644
42.6,6.532158161,662.7405731,18.981123
42.7,6.540770103,662.0196901,18.994797
42.8,6.589331888,661.2082367,19.011927
42.9,5.686034839,660.3250971,19.032713
43,2.881173108,659.3889996,19.057297
43.1,2.512055696,658.416266,19.085749
43.2,2.488851297,657.4245133,19.118069
43.3,2.426175495,656.4292128,19.1542
43.4,2.3972298,655.4448849,19.194012
43.5,2.433352113,654.4858806,19.237316
43.6,2.42426173,653.5631619,19.283873
43.7,2.383115784,652.6867699,19.333385
43.8,2.336467764,651.8631808,19.385536
43.9,2.328812704,651.0964199,19.43997
44,2.359432943,650.3859507,19.496313
44.1,2.415649788,649.7276878,19.554195
44.2,2.482153119,649.115247,19.613251
44.3,2.529518801,648.538787,19.673124
44.4,2.538369964,647.9853318,19.73349
44.5,2.52521283,647.439393,19.794041
44.6,2.535499317,646.8868298,19.854525
44.7,2.529518801,646.3132574,19.91469
44.8,2.529758022,645.704768,19.974339
44.9,2.523059845,645.0492067,20.033298
45,2.520428418,644.3364219,20.09141
45.1,2.557746834,643.5601325,20.148535
45.2,2.748644886,642.7179912,20.204544
45.3,2.724483604,641.811247,20.259319
45.4,2.712522573,640.8444499,20.312731
45.5,2.8161051,639.825103,20.364637
45.6,2.802947966,638.7634836,20.414909
45.7,2.774002272,637.6720801,20.463385
45.8,2.736444635,636.5646308,20.509899
45.9,2.752472416,635.4567009,20.554287
46,2.762998123,634.3655473,20.596363
46.1,2.760366696,633.3063429,20.635946
46.2,2.741468268,632.2946106,20.672874
46.3,2.621379518,631.3450321,20.706982
46.4,2.532150228,630.4681174,20.738113
46.5,2.487415973,629.6718299,20.766146
46.6,2.410386934,628.9594,20.790977
46.7,2.407277066,628.3319949,20.812521
46.8,2.388378637,627.788979,20.830725
46.9,2.351777883,627.3281969,20.845573
47,2.31565557,626.9471181,20.857073
47.1,2.306086745,626.6439519,20.865263
47.2,2.248434577,626.4185513,20.87022
47.3,2.238387311,626.2731692,20.872049
47.4,2.267572226,626.2095371,20.870897
47.5,2.258003401,626.2290127,20.866945
47.6,2.20322188,626.3324408,20.860409
47.7,2.108729737,626.5186208,20.851542
47.8,2.034332125,626.7848154,20.840631
47.9,2.023567197,627.1280279,20.827993
48,2.043422508,627.541495,20.813976
48.1,2.056340421,628.016249,20.798943
48.2,2.061842496,628.5425941,20.783264
48.3,2.084807675,629.110081,20.767321
48.4,2.079544821,629.7090355,20.751484
48.5,2.102031559,630.3302429,20.736113
48.6,2.059450289,630.9643393,20.72154
48.7,1.76855802,631.6059877,20.708065
48.8,1.76496971,632.2485769,20.695957
48.9,1.74559284,632.8854656,20.685453
49,1.572636334,633.5098976,20.676731
49.1,1.572636334,634.1145474,20.669931
49.2,1.561392965,634.6920419,20.665155
49.3,1.575506982,635.2354428,20.662466
49.4,1.522160784,635.7377301,20.661875
49.5,1.503740797,636.1917448,20.663364
49.6,1.482928603,636.5913452,20.666883
49.7,1.455657453,636.9298334,20.672344
49.8,1.554934009,637.2028188,20.679628
49.9,1.638900445,637.4093019,20.688572
50,1.669042243,637.5496827,20.698988
50.1,1.683156259,637.6266875,20.710644
50.2,1.683634701,637.6427635,20.723251
50.3,1.709470527,637.5967702,20.736483
50.4,1.7300435,637.486003,20.74995
50.5,1.74152609,637.3042928,20.76321
50.6,1.750138032,637.0396603,20.77577
50.7,1.7532479,636.6745018,20.787071
50.8,1.732435706,636.1864034,20.796526
50.9,1.67574042,635.5502807,20.803499
51,1.642010313,634.7353135,20.807339
51.1,1.626939414,633.7112239,20.807394
51.2,1.614499942,632.4452222,20.802999
51.3,1.607084103,630.9024036,20.793528
51.4,1.597276058,629.0489184,20.778376
51.5,1.564502833,626.8480165,20.756987
51.6,1.53220805,624.2625179,20.728849
51.7,1.526227535,621.2600956,20.693501
51.8,1.489148339,617.8107168,20.650539
51.9,1.474795102,613.890061,20.599606
52,1.446327849,609.4811293,20.540394
52.1,1.44297876,604.5724251,20.47263
52.2,1.461877189,599.1587141,20.396084
52.3,1.476708867,593.2422048,20.310543
52.4,1.493932752,586.8296903,20.215839
52.5,1.491779766,579.9343101,20.111813
52.6,1.503262356,572.5751971,19.998337
52.7,1.503262356,564.7771176,19.875292
52.8,1.500870149,556.5703132,19.742615
52.9,1.50110937,547.9893784,19.600225
53,1.481254059,539.0727918,19.448088
53.1,1.475751985,529.8626331,19.286179
53.2,1.467379263,520.4066326,19.114498
53.3,1.355663235,510.7544717,18.933041
53.4,1.208542556,500.955701,18.741816
53.5,1.172898684,491.0589005,18.540817
53.6,1.181510626,481.1103047,18.330061
53.7,1.187251921,471.1549674,18.109522
53.8,1.129360532,461.2357051,17.879169
53.9,1.085822379,451.3958761,17.63896
54,1.073382907,441.6745597,17.388851
54.1,1.060704215,432.1079653,17.12878
54.2,1.098979513,422.7313219,16.858683
54.3,1.104481587,413.5759649,16.578493
54.4,1.108069897,404.6701399,16.288189
54.5,1.141082342,396.0402788,15.987743
54.6,1.201126717,387.7059587,15.677172
54.7,1.210934762,379.684358,15.356517
54.8,1.215958395,371.9874541,15.025906
54.9,1.218350601,364.6203879,14.685484
55,1.227440984,357.5840311,14.335466
55.1,1.249927722,350.8719484,13.976127
55.2,1.271218357,344.47182,13.607834
55.3,1.287246139,338.3653744,13.230989
55.4,1.290356007,332.5280036,12.846069
55.5,1.301120934,326.9314687,12.453588
55.6,1.305426906,321.5454973,12.054161
55.7,1.283657829,316.3385606,11.648393
55.8,1.275045887,311.2798251,11.236936
55.9,1.247774737,306.3367919,10.82044
56,1.258539665,301.4792125,10.399606
56.1,1.255190576,296.6789124,9.975092
56.2,1.244664869,291.9089915,9.547553
56.3,1.216436836,287.1443613,9.117611
56.4,1.208781776,282.3620285,8.68592
56.5,1.200169834,277.5407308,8.253057
56.6,1.204475805,272.662304,7.819591
56.7,1.196342304,267.7108606,7.386056
56.8,1.180075302,262.676096,6.953001
56.9,1.181271405,257.5496603,6.520912
57,1.181271405,252.3251322,6.09026
57.1,1.146584416,247.0003932,5.661484
57.2,1.095869645,241.5752973,5.235039
57.3,1.09754419,236.051422,4.811311
57.4,1.098740293,230.4330159,4.390673
57.5,1.07840654,224.7283144,3.973444
57.6,1.071708363,218.945691,3.559958
57.7,0.991569456,213.0942189,3.150461
57.8,0.987981147,207.1842794,2.745178
57.9,0.963102203,201.2247344,2.34428
58,0.909038344,195.2263926,1.947931
58.1,0.832726967,189.2015653,1.556223
58.2,0.813350097,183.1630994,1.169221
58.3,0.813589318,177.1253157,0.786943
58.4,0.803542052,171.1032514,0.409424
58.5,0.772682592,165.1126383,0.036626
58.6,0.725795351,159.1717317,-0.331487
58.7,0.686802391,153.3008354,-0.694985
58.8,0.661923447,147.5220958,-1.053908
58.9,0.654507607,141.858835,-1.408348
59,0.629867884,136.3349679,-1.758401
59.1,0.599486866,130.9730459,-2.10419
59.2,0.578913892,125.7924491,-2.445829
59.3,0.561450787,120.8094744,-2.783492
59.4,0.556905596,116.0380742,-3.11738
59.5,0.539442491,111.4888589,-3.44773
59.6,0.515520429,107.1694597,-3.774827
59.7,0.515281208,103.0833491,-4.098979
59.8,0.515520429,99.23004004,-4.420516
59.9,0.505712384,95.60659526,-4.739869
60,0.506190825,92.20655787,-5.057405
60.1,0.510496796,89.01769736,-5.373596
60.2,0.532744313,86.0286812,-5.688858
60.3,0.563364552,83.22671482,-6.003597
60.4,0.590874923,80.59966759,-6.318267
60.5,0.583459084,78.13645442,-6.633227
60.6,0.599247645,75.82476682,-6.948778
60.7,0.603792837,73.65140155,-7.265234
60.8,0.616471529,71.6050751,-7.582742
60.9,0.614557764,69.67377288,-7.901453
61,0.622930486,67.84941109,-8.221362
61.1,0.622212824,66.12412801,-8.542369
61.2,0.624844251,64.4924466,-8.864354
61.3,0.626758016,62.95121122,-9.187037
61.4,0.633216972,61.49657245,-9.510054
61.5,0.660488123,60.12484913,-9.833043
61.6,0.664076432,58.83116784,-10.15548
61.7,0.677472787,57.60900971,-10.476881
61.8,0.666707859,56.45159244,-10.796652
61.9,0.667425521,55.35104939,-11.11417
62,0.671492271,54.29706767,-11.428866
62.1,0.672209933,53.27703258,-11.740103
62.2,0.67508058,52.27715763,-12.047258
62.3,0.668382403,51.28298831,-12.349805
62.4,0.664794094,50.27981995,-12.647175
62.5,0.653789946,49.25461835,-12.938942
62.6,0.660248902,48.19610816,-13.224683
62.7,0.660248902,47.09515146,-13.504047
62.8,0.657378255,45.94670414,-13.776828
62.9,0.659052799,44.75077803,-14.042808
63,0.650680078,43.51024358,-14.301927
63.1,0.649962416,42.23148284,-14.554125
63.2,0.646134886,40.92506901,-14.799404
63.3,0.638958267,39.60422841,-15.037863
63.4,0.636805282,38.28268623,-15.269571
63.5,0.641828915,36.97413252,-15.494616
63.6,0.627236457,35.69266641,-15.713132
63.7,0.610491014,34.45190302,-15.92517
63.8,0.593745571,33.26471538,-16.130806
63.9,0.566713641,32.1433602,-16.330015
64,0.566952862,31.09895597,-16.522713
64.1,0.549728977,30.14072479,-16.708755
64.2,0.546379889,29.274771,-16.887859
64.3,0.528677563,28.50308827,-17.059626
64.4,0.524371592,27.82382096,-17.223558
64.5,0.509539914,27.23040382,-17.378979
64.6,0.50427706,26.70869744,-17.525116
64.7,0.505233943,26.24168021,-17.661036
64.8,0.514563547,25.81231921,-17.78569
64.9,0.547336771,25.40358153,-17.897957
65,0.517434194,24.99843426,-17.996628
65.1,0.505473163,24.57984449,-18.080452
65.2,0.490641485,24.13077931,-18.148211
65.3,0.494708235,23.63420581,-18.198713
65.4,0.493751353,23.07309108,-18.230881
65.5,0.511214458,22.4304022,-18.243757
65.6,0.514085105,21.68910626,-18.236578
65.7,0.51599887,20.83217036,-18.208788
65.8,0.51599887,0,-18.160072
65.9,0.515041988,0,-18.09037
66,0.517194973,0,-17.999868
66.1,0.520065621,0,-17.88903
66.2,0.521022503,0,-17.75853
66.3,0.527242239,0,-17.609274
66.4,0.582262981,0,-17.442364
66.5,0.64780943,0,-17.259007
66.6,0.917889506,0,-17.060555
66.7,0.918128727,0,-16.848423
66.8,0.926501449,0,-16.623997
66.9,1.048025522,0,-16.388702
67,1.125772222,0,-16.143854
67.1,2.343644382,0,-15.890713
67.2,3.128766446,0,-15.630443
67.3,3.286891274,0,-15.364018
67.4,4.610738167,0,-15.092335
67.5,5.48461108,0,-14.816147
67.6,6.478094301,0,-14.53601
67.7,6.483596375,0,-14.252425
67.8,6.786449676,0,-13.9657
67.9,7.469663758,0,-13.676097
68,7.544061369,0,-13.383803
68.1,7.552673312,0,-13.088885
68.2,7.562481357,0,-12.791437
68.3,7.568222652,0,-12.491549
68.4,7.591427051,0,-12.189252
68.5,7.708405933,0,-11.8847
68.6,8.398796633,0,-11.577991
68.7,8.56074899,0,-11.269343
68.8,8.899724604,0,-10.959015
68.9,9.208079979,0,-10.647247
69,9.379601162,0,-10.33439
69.1,9.468591231,0,-10.020815
69.2,9.568585449,0,-9.706861
69.3,10.73000154,0,-9.39296
69.4,10.77019061,0,-9.079449
69.5,10.78502228,0,-8.766734
69.6,11.17662643,0,-8.4552
69.7,11.17949708,0,-8.145152
69.8,11.22518822,0,-7.836944
69.9,11.47589143,0,-7.53091
70,11.82874184,0,-7.227314
70.1,11.83089482,0,-6.926495
70.2,11.83376547,0,-6.628706
70.3,11.84261663,0,-6.334263
70.4,11.85792675,0,-6.043486
70.5,11.90481399,0,-5.756638
70.6,11.72061412,0,-5.474045
70.7,12.11437125,0,-5.196038
70.8,13.47864643,0,-4.922888
70.9,13.07197138,0,-4.654942
71,13.0107309,0,-4.392471
71.1,12.67510438,0,-4.135803
71.2,13.0652732,0,-3.885259
71.3,13.178903,0,-3.641108
71.4,12.81815831,0,-3.403662
71.5,12.80093442,0,-3.173231
71.6,12.80906792,0,-2.950055
71.7,12.83657829,0,-2.734417
71.8,12.99685611,0,-2.526504
71.9,13.04135114,0,-2.3265
72,13.62504945,0,-2.134532
72.1,13.77815064,0,-1.950608
72.2,14.19128465,0,-1.774694
72.3,14.08220005,0,-1.606667
72.4,13.91546328,0,-1.446269
72.5,13.82192801,0,-1.293192
72.6,13.84369709,0,-1.146997
72.7,13.76906026,0,-1.007205
72.8,12.9260468,0,-0.873268
72.9,12.89423046,0,-0.744561
73,12.89040293,0,-0.620464
73.1,12.57032575,0,-0.500348
73.2,12.58611431,0,-0.383572
73.3,12.59400859,0,-0.269565
73.4,12.52272084,0,-0.157767
73.5,12.4734414,0,-0.04772
73.6,13.39850752,0,0.060962
73.7,13.50376459,0,0.168591
73.8,14.06449772,0,0.27536
73.9,14.25061136,0,0.381362
74,14.21592437,0,0.486601
74.1,14.21233606,0,0.590955
74.2,13.70183926,0,0.694236
74.3,12.3586155,0,0.796142
74.4,12.40119677,0,0.896295
74.5,12.39449859,0,0.994271
74.6,13.09804643,0,1.089573
74.7,12.69208904,0,1.181671
74.8,12.41220092,0,1.270032
74.9,12.4677001,0,1.354097
75,12.87461437,0,1.433342
75.1,12.96408288,0,1.507257
75.2,12.94063926,0,1.575377
75.3,12.80236975,0,1.637312
75.4,13.15976535,0,1.692726
75.5,12.43014247,0,1.741379
75.6,11.88495868,0,1.783121
75.7,11.24863184,0,1.817894
75.8,11.13524127,0,1.845755
75.9,11.10007584,0,1.866863
76,11.12232335,0,1.881479
76.1,11.10151116,0,1.889967
76.2,11.39647018,0,1.892777
76.3,11.36680682,0,1.890432
76.4,11.37948552,0,1.883521
76.5,11.64884793,0,1.872665
76.6,11.77013278,0,1.858513
76.7,12.01772612,0,1.841709
76.8,12.94350991,0,1.822879
76.9,13.38965636,0,1.802608
77,13.14852198,0,1.781425
77.1,12.20694963,0,1.759796
77.2,12.12083021,0,1.738111
77.3,11.45196936,0,1.716684
77.4,11.2017446,0,1.69575
77.5,11.18930513,0,1.67547
77.6,11.23930224,0,1.655946
77.7,11.74118709,0,1.637221
77.8,12.00385133,0,1.619295
77.9,11.93232436,0,1.602137
78,11.5510067,0,1.58569
78.1,10.728327,0,1.569888
78.2,10.73813504,0,1.554652
78.3,10.74818231,0,1.539909
78.4,10.6807221,0,1.52559
78.5,10.1632879,0,1.511631
78.6,10.15108765,0,1.497995
78.7,10.47212172,0,1.484652
78.8,10.41901474,0,1.471597
78.9,9.974542835,0,1.458846
79,10.07692926,0,1.44643
79.1,11.09122467,0,1.434395
79.2,11.2782952,0,1.42279
79.3,11.37900708,0,1.411652
79.4,11.3792463,0,1.401013
79.5,11.340971,0,1.390865
79.6,11.43881223,0,1.381166
79.7,11.28666792,0,1.371823
79.8,11.29240921,0,1.362679
79.9,11.29001701,0,1.353523
80,10.992905,0,1.344067
80.1,10.83406251,0,1.333962
80.2,10.54580167,0,1.322799
80.3,9.098995378,0,1.310114
80.4,8.431091416,0,1.295409
80.5,8.438746476,0,1.278154
80.6,8.774133781,0,1.257806
80.7,8.753082366,0,1.233836
80.8,8.751168601,0,1.205735
80.9,8.755713793,0,1.173031
81,8.755713793,0,1.135307
81.1,8.674857225,0,1.092205
81.2,7.987097952,0,1.043445
81.3,7.59860367,0,0.988822
81.4,7.663671678,0,0.9282
81.5,7.829690786,0,0.86153
81.6,7.829451565,0,0.788842
81.7,7.818208196,0,0.710216
81.8,7.80792171,0,0.625821
81.9,7.82347105,0,0.535865
82,8.098574759,0,0.440624
82.1,8.689688903,0,0.340428
82.2,8.623424792,0,0.235625
82.3,8.613855967,0,0.126628
82.4,8.547352636,0,0.013886
82.5,8.392098456,0,-0.10214
82.6,7.009881732,0,-0.220927
82.7,6.647701718,0,-0.341953
82.8,6.524742321,0,-0.464641
82.9,6.525220763,0,-0.588388
83,6.507039996,0,-0.712593
83.1,6.134095054,0,-0.836608
83.2,7.540712281,0,-0.95977
83.3,9.474810967,0,-1.08144
83.4,9.821920082,0,-1.200939
83.5,9.860913042,0,-1.317642
83.6,9.883878222,0,-1.430919
83.7,9.91043171,0,-1.540176
83.8,9.924306506,0,-1.64489
83.9,9.927655594,0,-1.744573
84,9.903972753,0,-1.838812
84.1,9.574326744,0,-1.927287
84.2,9.570499214,0,-2.009735
84.3,9.56906389,0,-2.086006
84.4,9.57313064,0,-2.15601
84.5,9.623845411,0,-2.219744
84.6,9.875744721,0,-2.277289
84.7,10.19127671,0,-2.328777
84.8,10.43887005,0,-2.374401
84.9,10.48623573,0,-2.414402
85,10.4254737,0,-2.449054
85.1,10.4254737,0,-2.478662
85.2,10.42116773,0,-2.503546
85.3,10.42140695,0,-2.524047
85.4,10.4104028,0,-2.540508
85.5,10.17692348,0,-2.553278
85.6,9.520741325,0,-2.562708
85.7,9.464763701,0,-2.569145
85.8,9.608296071,0,-2.57294
85.9,11.38020318,0,-2.57443
86,11.43952989,0,-2.573955
86.1,11.66966013,0,-2.571844
86.2,11.85577377,0,-2.568419
86.3,12.1416424,0,-2.564002
86.4,12.27560595,0,-2.558895
86.5,12.41626767,0,-2.553403
86.6,12.44114661,0,-2.547818
86.7,11.54095943,0,-2.542426
86.8,10.01210047,0,-2.537507
86.9,9.674799403,0,-2.53333
87,9.775750503,0,-2.530158
87.1,10.17453127,0,-2.528238
87.2,10.17381361,0,-2.527793
87.3,10.20658683,0,-2.529033
87.4,10.3570566,0,-2.532128
87.5,10.54245258,0,-2.537218
87.6,10.64005459,0,-2.544399
87.7,10.63790161,0,-2.553713
87.8,10.64699199,0,-2.565156
87.9,10.75224906,0,-2.578651
88,10.99386188,0,-2.594074
88.1,10.78741449,0,-2.611227
88.2,10.46709809,0,-2.629856
88.3,10.24462291,0,-2.649649
88.4,10.15898193,0,-2.67024
88.5,10.11065937,0,-2.691222
88.6,10.11209469,0,-2.712155
88.7,10.18194711,0,-2.732574
88.8,10.56876685,0,-2.752011
88.9,10.97926943,0,-2.769998
89,11.57445032,0,-2.786088
89.1,11.66655026,0,-2.799874
89.2,11.54957138,0,-2.810989
89.3,11.37063435,0,-2.819139
89.4,9.684607448,0,-2.8241
89.5,9.613558925,0,-2.825738
89.6,9.31692536,0,-2.82401
89.7,9.079618508,0,-2.81897
89.8,8.699018507,0,-2.810775
89.9,8.520799147,0,-2.799666
90,8.729399525,0,-2.785982
90.1,11.48689557,0,-2.770136
90.2,11.50555478,0,-2.752603
90.3,11.52206101,0,-2.733904
90.4,11.52253945,0,-2.714594
90.5,11.40890965,0,-2.695248
90.6,11.03644315,0,-2.676437
90.7,11.02256836,0,-2.65871
90.8,10.97592034,0,-2.642598
90.9,10.83645472,0,-2.628582
91,10.62761512,0,-2.617098
91.1,10.56015491,0,-2.608522
91.2,10.55489205,0,-2.603167
91.3,10.54460557,0,-2.601282
91.4,10.44461135,0,-2.603044
91.5,10.54340946,0,-2.608561
91.6,11.07782832,0,-2.617866
91.7,11.07615378,0,-2.630924
91.8,11.07782832,0,-2.647635
91.9,11.0613221,0,-2.667824
92,11.06227898,0,-2.691262
92.1,11.06897716,0,-2.717662
92.2,11.00151694,0,-2.746681
92.3,10.62833278,0,-2.777945
92.4,10.1852962,0,-2.811035
92.5,9.803021653,0,-2.845508
92.6,9.785558548,0,-2.880909
92.7,9.750632338,0,-2.916767
92.8,9.941769611,0,-2.952623
92.9,9.944161817,0,-2.988013
93,9.948707009,0,-3.022496
93.1,9.949903112,0,-3.055655
93.2,10.18170789,0,-3.0871
93.3,10.91611518,0,-3.116475
93.4,10.91970349,0,-3.143467
93.5,10.58479463,0,-3.167806
93.6,7.775387706,0,-3.189273
93.7,8.247369983,0,-3.207688
93.8,8.621271806,0,-3.222929
93.9,8.932497829,0,-3.234923
94,8.938239124,0,-3.243641
94.1,8.962639627,0,-3.249104
94.2,9.311662506,0,-3.251373
94.3,9.451606567,0,-3.250555
94.4,9.773597517,0,-3.246785
94.5,9.771205311,0,-3.240236
94.6,9.772401414,0,-3.231105
94.7,9.772640635,0,-3.219603
94.8,9.779578033,0,-3.205963
94.9,9.77862115,0,-3.190423
95,9.51882756,0,-3.173216
95.1,9.607099968,0,-3.154576
95.2,10.1608957,0,-3.134727
95.3,10.2166341,0,-3.113881
95.4,10.21639488,0,-3.092235
95.5,10.21998319,0,-3.069964
95.6,10.22548526,0,-3.04723
95.7,10.22811669,0,-3.024179
95.8,10.22883435,0,-3.000932
95.9,10.2073045,0,-2.977599
96,9.917847549,0,-2.954273
96.1,9.962581805,0,-2.931031
96.2,10.18936295,0,-2.907939
96.3,10.67832989,0,-2.885045
96.4,10.96467697,0,-2.862388
96.5,11.10916622,0,-2.84
96.6,11.12973919,0,-2.817901
96.7,10.90846012,0,-2.796108
96.8,10.19008061,0,-2.774636
96.9,10.19175516,0,-2.753499
97,10.15850349,0,-2.732716
97.1,9.98793919,0,-2.712309
97.2,9.761158045,0,-2.692308
97.3,9.458543965,0,-2.672755
97.4,9.139423662,0,-2.653695
97.5,9.136313794,0,-2.635197
97.6,9.102583687,0,-2.617338
97.7,8.760976647,0,-2.600217
97.8,8.605483246,0,-2.583959
97.9,8.396882868,0,-2.568709
98,8.543046665,0,-2.554655
98.1,8.588020141,0,-2.542022
98.2,11.41417251,0,-2.531082
98.3,11.48115428,0,-2.522172
98.4,11.46225585,0,-2.515687
98.5,11.33594737,0,-2.512095
98.6,10.74291946,0,-2.511946
98.7,10.22285384,0,-2.515865
98.8,10.18673152,0,-2.524561
98.9,10.18697074,0,-2.538815
99,10.24055616,0,-2.55948
99.1,10.45035264,0,-2.587456
99.2,10.58646917,0,-2.623684
99.3,10.63216031,0,-2.669119
99.4,10.66971795,0,-2.724695
99.5,10.65895302,0,-2.791319
99.6,10.56828841,0,-2.869805
99.7,10.3627979,0,-2.960852
99.8,9.899906003,0,-3.065026
99.9,9.622888529,0,-3.182669
100,9.45256345,0,-3.313934
0,16.25456247,45.28950645,1.038061
0.1,16.30934399,52.08828298,0.905917
0.2,16.32704631,59.239728,0.765325
0.3,16.24953883,66.71118594,0.617039
0.4,16.24403676,74.45648079,0.461995
0.5,16.24355832,82.40732121,0.301304
0.6,16.24499364,90.48190842,0.136237
0.7,16.24882117,98.58433516,-0.031798
0.8,16.25623701,106.6114845,-0.201284
0.9,16.2457113,114.4596606,-0.370623
1,16.13255995,122.0284557,-0.538172
1.1,15.81080822,129.2281495,-0.702281
1.2,15.97874109,135.9809554,-0.861334
1.3,20.92079982,142.2227102,-1.013782
1.4,28.11248922,147.9060017,-1.158182
1.5,28.61772316,152.9994106,-1.293236
1.6,28.74283554,157.4881525,-1.417809
1.7,28.83421782,161.372869,-1.530962
1.8,28.93660424,164.6673119,-1.631961
1.9,28.98803667,167.3982721,-1.720302
2,28.86388117,169.5993872,-1.795707
2.1,27.82925201,171.3086268,-1.858124
2.2,27.76203101,172.5680353,-1.907722
2.3,27.76585854,173.4228844,-1.944882
2.4,27.76131335,173.9213813,-1.970177
2.5,27.70916326,174.1142838,-1.984349
2.6,27.6632329,174.054646,-1.988289
2.7,27.57113296,173.7980081,-1.983007
2.8,27.39698035,173.4021403,-1.969605
2.9,27.61299657,172.9260429,-1.949246
3,28.08856716,172.4286406,-1.923127
3.1,28.12803856,171.9673533,-1.892449
3.2,28.2921439,171.5973295,-1.858389
3.3,28.27731222,171.3707871,-1.822083
3.4,28.45744535,171.33517,-1.7846
3.5,28.57035748,171.5302494,-1.746926
3.6,28.52107803,171.9882895,-1.709954
3.7,28.31797973,172.7305914,-1.67447
3.8,28.01297344,173.7677998,-1.641156
3.9,26.74964936,175.1027538,-1.610582
4,26.56688481,176.7274015,-1.583217
4.1,26.55157469,178.6272014,-1.559425
4.2,26.54415885,180.7825125,-1.539485
4.3,26.54990015,183.1682805,-1.523594
4.4,26.57358299,185.7569072,-1.511878
4.5,26.65659254,188.5211616,-1.504403
4.6,27.15010468,191.4349872,-1.501191
4.7,27.37234063,194.4736623,-1.502227
4.8,28.13856426,197.6147785,-1.507463
4.9,28.20243617,200.8385223,-1.516834
5,28.2062637,204.1277122,-1.530262
5.1,28.22707589,207.4677366,-1.547655
5.2,25.75114251,210.8461811,-1.568918
5.3,21.56549938,214.2506259,-1.593955
5.4,15.76463864,217.669905,-1.622665
5.5,15.55029697,221.0952217,-1.654948
5.6,15.14194738,224.5197108,-1.690704
5.7,15.0180311,227.9380325,-1.729834
5.8,14.7953167,231.3481079,-1.772233
5.9,14.57403763,234.7508566,-1.817796
6,14.65776485,238.148138,-1.866414
6.1,14.99889345,241.5441103,-1.917965
6.2,15.75387372,244.9443675,-1.972322
6.3,16.42345222,248.3551517,-2.029342
6.4,16.59138509,251.7830465,-2.088865
6.5,16.60023626,255.2350751,-2.15071
6.6,16.6019108,258.7164253,-2.214678
6.7,16.57798874,262.2314538,-2.280544
6.8,16.41651482,265.784986,-2.348057
6.9,16.06175065,269.3791651,-2.416945
7,15.21849797,273.014876,-2.486908
7.1,15.20749383,276.6916774,-2.557621
7.2,15.00535241,280.407521,-2.628738
7.3,14.71206793,284.1597631,-2.699894
7.4,14.47260809,287.9459657,-2.770701
7.5,14.3903162,291.7640319,-2.840752
7.6,14.38505335,295.6119903,-2.909629
7.7,14.36687258,299.4875797,-2.976895
7.8,14.34917025,303.3881455,-3.042098
7.9,14.4123245,307.3104498,-3.104774
8,14.52212676,311.2510006,-3.164448
8.1,14.56422959,315.2074343,-3.220631
8.2,14.52715039,319.1815928,-3.272826
8.3,14.50274989,323.1795258,-3.320525
8.4,14.49150652,327.2112834,-3.363218
8.5,14.22429709,331.2908757,-3.400387
8.6,13.65830111,335.4355197,-3.43152
8.7,12.99135403,339.6645296,-3.456111
8.8,11.61607471,343.9983924,-3.473664
8.9,11.61798847,348.4583106,-3.483702
9,11.59310953,353.0667414,-3.485775
9.1,11.50603322,357.8456471,-3.479463
9.2,11.25485158,362.8153785,-3.464394
9.3,10.94482166,367.9935834,-3.440243
9.4,10.34174648,373.3935783,-3.406747
9.5,10.27739614,379.0265711,-3.36371
9.6,10.27572159,384.9016629,-3.311016
9.7,10.27572159,391.0247333,-3.248627
9.8,10.71780129,397.3971583,-3.176593
9.9,12.18781198,404.0165041,-3.095058
10,12.32081864,410.8754343,-3.004256
10.1,11.37972474,417.9609037,-2.904505
10.2,10.25778005,425.2543933,-2.796213
10.3,9.777664268,432.732344,-2.679866
10.4,9.750871559,440.3663461,-2.556022
10.5,9.755895192,448.1233677,-2.425303
10.6,9.931961566,455.9666441,-2.288384
10.7,10.23768551,463.8586678,-2.145984
10.8,10.92879388,471.7598993,-1.998852
10.9,11.38498759,479.6307809,-1.847762
11,11.40627823,487.4347023,-1.693494
11.1,11.34479853,495.1342396,-1.536831
11.2,11.15820645,502.6953419,-1.378543
11.3,11.22399212,510.0880409,-1.219381
11.4,11.85194624,517.2855385,-1.06007
11.5,11.98519212,524.2655706,-0.901291
11.6,12.61290702,531.0122804,-0.743687
11.7,13.61117465,537.5158949,-0.587847
11.8,14.0944003,543.7716996,-0.434303
11.9,14.9785597,549.7794069,-0.283531
12,16.68850866,555.5420967,-0.13594
12.1,17.75184431,561.0641059,0.008125
12.2,21.84179919,566.3500931,0.14838
12.3,21.95901729,571.4057936,0.284608
12.4,22.68026745,576.2355918,0.416654
12.5,25.85161517,580.8420224,0.544416
12.6,27.2130197,585.2264762,0.667847
12.7,27.59050983,589.389899,0.786949
12.8,28.03474252,593.3297314,0.901766
12.9,28.04407212,597.0426186,1.012377
13,28.54404321,600.5249539,1.118896
13.1,30.19801455,603.771817,1.221459
13.2,32.17660827,606.7799309,1.320217
13.3,32.6665321,609.5489016,1.415337
13.4,32.74212581,612.0797895,1.506991
13.5,32.81484888,614.3733097,1.59535
13.6,32.95479294,616.4313173,1.680586
13.7,33.38586849,618.2565354,1.762863
13.8,33.47438012,619.8518792,1.842336
13.9,33.5889668,621.2210857,1.919148
14,33.60714756,622.3721295,1.993434
14.1,33.59997094,623.3161228,2.065313
14.2,33.61671639,624.0660822,2.134893
14.3,33.63585404,624.6359598,2.202277
14.4,33.64231299,625.0401449,2.267554
14.5,33.60953977,625.2944451,2.330808
14.6,33.49806296,625.4133489,2.392117
14.7,33.35309527,625.4103861,2.451557
14.8,33.16985228,625.3021651,2.5092
14.9,33.10837258,625.103699,2.565122
15,33.10478427,624.8307588,2.619402
15.1,33.10550193,624.4992649,2.672124
15.2,33.09999986,624.1219087,2.723378
15.3,32.9067096,623.7112712,2.773267
15.4,32.78973072,623.2777542,2.821898
15.5,32.56749476,622.8292882,2.869392
15.6,32.32683882,622.3728518,2.915877
15.7,32.08044159,621.9157611,2.961491
15.8,31.59625906,621.4659168,3.006376
15.9,31.13312794,621.0319876,3.050678
16,30.37001418,620.6238388,3.094543
16.1,29.68010192,620.2533424,3.138113
16.2,26.98886998,619.9335957,3.181525
16.3,26.92499808,619.6791167,3.224905
16.4,24.61580146,619.506314,3.268365
16.5,21.65544633,619.4333876,3.311999
16.6,21.15093005,619.4782176,3.355882
16.7,20.90740346,619.6567971,3.400068
16.8,20.41556587,619.9820432,3.444589
16.9,20.86386531,620.462929,3.489451
17,18.5326604,621.1047614,3.534643
17.1,17.60137454,621.9072806,3.58013
17.2,16.57296511,622.8634304,3.625859
17.3,16.15528591,623.9593514,3.671767
17.4,16.00290238,625.1747296,3.717775
17.5,16.08064908,626.4844396,3.763801
17.6,14.98717164,627.8606529,3.809761
17.7,14.35108402,629.2756133,3.855568
17.8,12.963126,630.7051475,3.901143
17.9,13.77121324,632.1270094,3.946408
18,16.66578271,633.5222228,3.9913
18.1,20.9705577,634.8767414,4.035754
18.2,23.18430529,636.1779911,4.079725
18.3,23.26516186,637.4162292,4.123172
18.4,23.28429951,638.5845255,4.166061
18.5,23.34817141,639.6774947,4.208371
18.6,23.40630202,640.6896032,4.250084
18.7,23.45223238,641.6173057,4.291193
18.8,23.47758977,642.4576681,4.331691
18.9,23.48046041,643.2070896,4.371586
19,23.47854665,643.8621358,4.410886
19.1,23.47735055,644.4195759,4.449608
19.2,23.48022119,644.878146,4.487776
19.3,23.48237418,645.2387357,4.525424
19.4,23.48189574,645.5026282,4.562589
19.5,23.48046041,645.6724786,4.599322
19.6,23.48046041,645.7505255,4.635683
19.7,23.50964533,645.73877,4.671738
19.8,23.57375646,645.640815,4.707562
19.9,25.81094766,645.4609375,4.743239
20,29.54805214,645.2034715,4.778859
20.1,30.32312694,644.8732575,4.814515
20.2,30.42264271,644.4762099,4.850307
20.3,30.42001129,644.0183529,4.886333
20.4,30.41809752,643.5082031,4.92269
20.5,30.42838401,642.9570392,4.959478
20.6,30.53890393,642.3780519,4.996789
20.7,30.74606899,641.7858838,5.034711
20.8,30.88553461,641.1967223,5.073331
20.9,30.41881518,640.6267742,5.112731
21,30.30733838,640.0912584,5.152987
21.1,29.58537055,639.6050137,5.194172
21.2,32.06991588,639.1794743,5.23636
21.3,32.54046283,638.8226451,5.27962
21.4,33.07320715,638.5385884,5.324018
21.5,36.9887702,638.3254937,5.369626
21.6,39.0994137,638.1777111,5.416506
21.7,40.61655085,638.0860262,5.464727
21.8,44.82491994,638.0393242,5.51435
21.9,43.84602918,638.027461,5.565439
22,42.70303307,638.040278,5.618047
22.1,42.02962704,638.0692249,5.672226
22.2,41.95451176,638.1080157,5.72802
22.3,42.37984602,638.1522377,5.785462
22.4,42.5989721,638.1990382,5.844573
22.5,42.69777022,638.2468156,5.905359
22.6,44.81104515,638.2953562,5.967814
22.7,46.86738557,638.3457601,6.031907
22.8,50.3846463,638.3991828,6.097594
22.9,52.91081601,638.4566901,6.164808
23,53.17467635,638.5181701,6.233458
23.1,53.20601425,638.5811868,6.303435
23.2,53.55168804,638.6406452,6.374604
23.3,53.77799074,638.6885596,6.446812
23.4,53.8621964,638.7150357,6.519879
23.5,53.8772673,638.7088865,6.593613
23.6,53.87128679,638.657371,6.667798
23.7,53.86052186,638.5478692,6.7422
23.8,53.16319376,638.3695603,6.816575
23.9,51.11737905,638.1135654,6.890655
24,50.42244315,637.7719285,6.964169
24.1,50.330104,637.3395129,7.036825
24.2,50.30474661,636.8148871,7.108332
24.3,50.91045321,636.2001731,7.178385
24.4,51.01092587,635.5007893,7.246678
24.5,50.99752952,634.7271892,7.312909
24.6,50.88772725,633.8903748,7.376774
24.7,50.90638646,633.0013274,7.437985
24.8,50.90734334,632.0718533,7.49627
24.9,50.89131556,631.1109359,7.551383
25,50.82816132,630.1292194,7.603109
25.1,49.91529545,629.1372535,7.651275
25.2,49.14691883,628.1433399,7.695751
25.3,49.3705901,627.1579036,7.736459
25.4,48.45030839,626.1899493,7.77338
25.5,46.01695628,625.2485946,7.806547
25.6,44.6828229,624.3452245,7.836055
25.7,43.01880429,623.4932437,7.862051
25.8,39.73621898,622.7091358,7.884734
25.9,39.67832759,622.0133839,7.90435
26,39.32715173,621.4301802,7.921178
26.1,38.3834264,620.9858172,7.935535
26.2,37.86407844,620.7083763,7.94775
26.3,37.53945606,620.6265494,7.958169
26.4,37.20382954,620.7679463,7.96714
26.5,36.97848371,621.1569697,7.975003
26.6,32.37372606,621.813011,7.982089
26.7,28.27874755,622.7504847,7.98871
26.8,31.26422084,623.9761298,7.995165
26.9,35.96945115,625.4854294,8.001727
27,35.94074468,627.2640041,8.008648
27.1,35.65057007,629.2860819,8.016156
27.2,35.22978101,631.5150126,8.024464
27.3,35.03936139,633.9042885,8.033759
27.4,35.02763958,636.3967271,8.044216
27.5,35.081225,638.9299191,8.055991
27.6,35.39364713,641.4379627,8.069226
27.7,35.83476995,643.8534856,8.084057
27.8,35.95557636,646.1133248,8.100598
27.9,35.95461947,648.1591632,8.118958
28,35.95174883,649.9396814,8.139235
28.1,35.9491174,651.412143,8.161515
28.2,35.64147969,652.5429323,8.185873
28.3,34.84870256,653.3113287,8.212366
28.4,34.83626309,653.7077734,8.241038
28.5,34.82430206,653.733356,8.271914
28.6,34.71521746,653.4011738,8.304998
28.7,34.54130407,652.7326039,8.340276
28.8,34.54010797,651.7569163,8.377708
28.9,34.54010797,650.5093934,8.417235
29,34.4975267,649.028884,8.458769
29.1,34.15902953,647.3605005,8.5022
29.2,33.61552028,645.5521743,8.547392
29.3,32.58735007,643.6542638,8.594186
29.4,31.61443983,641.7205117,8.642398
29.5,31.60056503,639.8059476,8.691824
29.6,31.59075698,637.9666119,8.742237
29.7,31.58214504,636.2584486,8.793385
29.8,31.58118816,634.7358713,8.844998
29.9,31.5804705,633.4504615,8.896796
30,31.69218653,632.4477477,8.948478
30.1,31.93643078,631.7645765,8.999729
30.2,32.17756516,631.425686,9.050241
30.3,32.17852204,631.4391874,9.099696
30.4,32.18522022,631.7998622,9.147783
30.5,32.28377911,632.4900832,9.194207
30.6,32.28473599,633.4812913,9.238688
30.7,31.18671336,634.7366169,9.280968
30.8,17.1982878,636.2098405,9.320825
30.9,11.53282593,637.8494883,9.358067
31,10.97448501,639.601926,9.392542
31.1,10.94673542,641.4130582,9.424134
31.2,10.86587885,643.2314975,9.45277
31.3,11.78281148,645.0119396,9.478415
31.4,14.21783813,646.7164744,9.501069
31.5,19.15798309,648.3143409,9.520773
31.6,34.10687943,649.781194,9.537593
31.7,33.92531098,651.0995796,9.551625
31.8,33.91765592,652.2577349,9.562994
31.9,33.96239018,653.2479575,9.571848
32,34.03750545,654.0666022,9.578347
32.1,34.08319659,654.714899,9.582674
32.2,34.09850671,655.1979383,9.585028
32.3,34.10065969,655.5244106,9.585615
32.4,34.10257346,655.7084365,9.584658
32.5,34.13104071,655.7642572,9.58239
32.6,34.25926296,655.707314,9.579048
32.7,34.26332971,655.554594,9.57488
32.8,34.26620036,655.3213259,9.570132
32.9,34.26643958,655.0209077,9.565058
33,34.2666788,654.6652901,9.559906
33.1,34.26787491,654.264807,9.554925
33.2,34.28414191,653.8276283,9.550354
33.3,34.32528785,653.3606237,9.546424
33.4,34.40016391,652.8696824,9.543358
33.5,34.44059219,652.3594606,9.541366
33.6,34.44322362,651.8329615,9.540637
33.7,34.4429844,651.292012,9.541349
33.8,34.4453766,650.739132,9.54366
33.9,34.44250596,650.1779111,9.547708
34,34.27026711,649.6129665,9.55361
34.1,33.88799257,649.051293,9.561469
34.2,33.88536114,648.501028,9.571361
34.3,33.87961985,647.9705628,9.583341
34.4,33.84852116,647.4681663,9.597451
34.5,33.77842952,647.0019238,9.613706
34.6,33.77938641,646.5778713,9.632103
34.7,33.78082173,646.2001177,9.652622
34.8,33.78010407,645.8711433,9.675227
34.9,33.78034329,645.5913091,9.699862
35,33.78130017,645.3592812,9.726456
35.1,33.77986485,645.1727969,9.754922
35.2,33.674847,645.0282971,9.785161
35.3,33.21793562,644.9197575,9.817059
35.4,32.3811419,644.8411609,9.850493
35.5,27.92446181,644.7845117,9.885326
35.6,6.243658097,644.7396949,9.921409
35.7,6.20227293,644.6962142,9.958579
35.8,6.587178902,644.6422989,9.996669
35.9,7.389764072,644.5663602,10.035496
36,7.113464259,644.4580852,10.074867
36.1,6.981653699,644.3090486,10.114582
36.2,6.956774755,644.1132124,10.154432
36.3,6.952468784,643.8674672,10.194201
36.4,6.942421518,643.5712753,10.233672
36.5,6.523067777,643.2263762,10.272624
36.6,6.571629562,642.8377453,10.310841
36.7,8.152399398,642.4135663,10.348113
36.8,8.589933906,641.9646467,10.384249
36.9,8.756192234,641.5033575,10.419069
37,8.76600028,641.0422052,10.452413
37.1,8.787051694,640.5941543,10.484149
37.2,8.714567847,640.170996,10.514174
37.3,8.294496444,639.7828868,10.542408
37.4,8.102402289,639.4395059,10.568806
37.5,8.100488524,639.1464893,10.593346
37.6,8.289951252,638.9075288,10.616034
37.7,8.299041636,638.724993,10.636895
37.8,8.297367091,638.5979812,10.655983
37.9,8.294974885,638.5221003,10.673354
38,8.294496444,638.4913898,10.689086
38.1,8.3160263,638.4977532,10.703263
38.2,9.784362445,638.529947,10.715977
38.3,11.3641754,638.5785675,10.727316
38.4,11.45986364,638.6353755,10.737376
38.5,11.68640557,638.693117,10.746251
38.6,11.68138194,638.7462368,10.754027
38.7,11.6763583,638.7917752,10.760794
38.8,11.67444454,638.8277705,10.766637
38.9,11.70434711,638.8548418,10.771638
39,11.96390148,638.8768648,10.775884
39.1,12.11317515,638.8973401,10.779461
39.2,12.50884605,638.9223195,10.782458
39.3,12.88585774,638.9587041,10.784974
39.4,12.95427484,639.0125821,10.787107
39.5,14.46973744,639.0899039,10.788975
39.6,17.84131282,639.1949964,10.790697
39.7,17.77983312,639.3297052,10.792411
39.8,17.49731357,639.493674,10.794264
39.9,18.74173922,639.6849931,10.79642
40,23.03192176,639.8973008,10.799058
40.1,23.42041604,640.1228893,10.802373
40.2,23.63236551,640.3539526,10.806572
40.3,23.64528342,640.5819551,10.811879
40.4,23.65293848,640.7997765,10.818524
40.5,23.60509436,641.0024445,10.826752
40.6,23.7227909,641.1871318,10.836799
40.7,23.69504131,641.3528965,10.848909
40.8,24.2902222,641.500686,10.863312
40.9,24.37538474,641.6338591,10.880218
41,24.62776249,641.7574363,10.89982
41.1,25.72482824,641.8766545,10.922277
41.2,27.18527011,641.9955935,10.947712
41.3,28.5021796,642.1175437,10.976213
41.4,30.03677986,642.243319,11.007817
41.5,30.26810619,642.3704505,11.042523
41.6,30.30638149,642.4949871,11.080277
41.7,30.52550758,642.6102337,11.12099
41.8,31.59410607,642.7078052,11.164522
41.9,32.22349552,642.7782399,11.210704
42,33.05119885,642.810636,11.25933
42.1,32.94929087,642.7953133,11.310173
42.2,32.32612116,642.7241347,11.362987
42.3,32.65863782,642.5904532,11.417508
42.4,33.9544959,642.3895638,11.473479
42.5,36.06011577,642.1202976,11.530628
42.6,36.71749402,641.7825163,11.588699
42.7,36.91963544,641.3780136,11.647444
42.8,37.03541822,640.9128433,11.706621
42.9,37.41434368,640.3942043,11.766008
43,37.64686612,639.8315897,11.825396
43.1,37.90091841,639.236351,11.88459
43.2,37.88536907,638.6203095,11.943417
43.3,38.85182036,637.9950742,12.001719
43.4,38.43701181,637.3713848,12.059356
43.5,39.0762093,636.7590953,12.116204
43.6,40.64717109,636.1672043,12.172162
43.7,42.81785897,635.6032891,12.227145
43.8,43.3252459,635.0719355,12.281087
43.9,42.57911679,634.5759027,12.333936
44,40.76127933,634.1169407,12.385659
44.1,40.65984979,633.6951522,12.436242
44.2,40.62946877,633.3107659,12.48568
44.3,40.62444513,632.9632245,12.533983
44.4,40.67587757,632.651171,12.581168
44.5,40.82802188,632.3738363,12.627263
44.6,40.8119941,632.1303326,12.672301
44.7,40.41082112,631.9188827,12.716323
44.8,40.3572357,631.73746,12.759359
44.9,40.34192559,631.5850714,12.801453
45,40.05629617,631.4608369,12.842641
45.1,39.09319397,631.3639553,12.882957
45.2,38.27840855,631.2929024,12.922434
45.3,36.64692394,631.2445831,12.961095
45.4,36.41487994,631.215127,12.99897
45.5,36.37301633,631.1999572,13.036072
45.6,36.3122543,631.1946256,13.072424
45.7,35.72616379,631.1952748,13.10804
45.8,34.78339534,631.1977063,13.142932
45.9,34.4303057,631.2001553,13.17712
46,33.78823757,631.2026624,13.210628
46.1,33.74924461,631.2059488,13.243484
46.2,33.53059697,631.2115276,13.275723
46.3,32.75839281,631.2207899,13.307396
46.4,29.85186232,631.2344439,13.338565
46.5,29.27749362,631.2526209,13.36931
46.6,28.94832605,631.2754368,13.399727
46.7,28.63733925,631.3021133,13.429925
46.8,28.24621354,631.3307536,13.460032
46.9,27.68954717,631.3594034,13.490192
47,27.53046546,631.3878558,13.520561
47.1,27.06637746,631.4176524,13.551298
47.2,26.52167212,631.453144,13.582575
47.3,25.49709021,631.5013893,13.614559
47.4,24.85215143,631.5716431,13.647417
47.5,21.38106028,631.6763566,13.681301
47.6,14.90535819,631.8276206,13.716353
47.7,12.71290124,632.0383024,13.752694
47.8,9.893686267,632.3232639,13.790419
47.9,9.870721088,632.6942336,13.829604
48,9.762114928,633.1620795,13.870302
48.1,9.718098334,633.7348224,13.912522
48.2,9.714749246,634.4150746,13.956265
48.3,9.555667535,635.2002846,14.001498
48.4,9.223150878,636.0838952,14.048169
48.5,8.183019637,637.0550591,14.096201
48.6,6.634305364,638.0990358,14.145509
48.7,6.588135785,639.1991688,14.195994
48.8,6.547229059,640.3379637,14.247549
48.9,5.591303475,641.4963186,14.300068
49,4.965263121,642.6547473,14.353436
49.1,4.888951744,643.7963423,14.407542
49.2,4.7863261,644.9049609,14.46229
49.3,4.691355515,645.9659105,14.517578
49.4,4.681547469,646.9670329,14.573314
49.5,4.661452938,647.8992188,14.629408
49.6,4.649013466,648.7550693,14.68578
49.7,4.653319437,649.5306012,14.742348
49.8,4.655711643,650.2252517,14.799031
49.9,4.65834307,650.8410228,14.855741
50,4.661931379,651.3827739,14.912386
50.1,4.663605923,651.8571785,14.968861
50.2,4.662649041,652.2717776,15.025048
50.3,4.361231064,652.6349627,15.080811
50.4,1.592970087,652.9573336,15.135985
50.5,1.476948088,653.2486196,15.190392
50.6,1.351118043,653.5180898,15.243825
50.7,1.347529734,653.7748835,15.296051
50.8,1.338439351,654.0263832,15.346816
50.9,1.329348967,654.2792385,15.395846
51,1.351357264,654.5382276,15.442851
51.1,1.347290513,654.8058432,15.487535
51.2,1.347290513,655.0829537,15.529594
51.3,1.383891268,655.3666485,15.568727
51.4,1.414033066,655.6506651,15.604648
51.5,1.451590702,655.9265522,15.637078
51.6,1.417860595,656.1844252,15.66577
51.7,1.355424014,656.4111909,15.690492
51.8,1.341549219,656.5924291,15.711043
51.9,1.34609441,656.7128752,15.727254
52,1.34609441,656.7557855,15.738982
52.1,1.337960909,656.7030041,15.746113
52.2,1.320497804,656.5355446,15.748556
52.3,1.296336522,656.2334814,15.746249
52.4,1.282940168,655.776021,15.739145
52.5,1.267630048,655.1429211,15.727216
52.6,1.268826151,654.3151883,15.710443
52.7,1.269065372,653.2738501,15.688817
52.8,1.271936019,651.9999679,15.662329
52.9,1.278873417,650.4775519,15.630966
53,1.278634196,648.6901867,15.594711
53.1,1.285093153,646.6228007,15.55353
53.2,1.289877565,644.2629244,15.507374
53.3,1.30327392,641.5991379,15.456169
53.4,1.335807924,638.6205988,15.399814
53.5,1.334611821,635.3181632,15.33817
53.6,1.319062481,631.6838444,15.271078
53.7,1.30734067,627.7090525,15.19833
53.8,1.318105598,623.3869903,15.119688
53.9,1.267390827,618.7115415,15.034882
54,1.261410312,613.6767987,14.943607
54.1,1.250406164,608.2773913,14.845542
54.2,1.131274297,602.5082425,14.740345
54.3,1.115246515,596.3651855,14.627665
54.4,1.10161094,589.8454083,14.507142
54.5,1.09395588,582.9479512,14.378444
54.6,1.080081085,575.6746915,14.241236
54.7,1.088932247,568.0300227,14.09521
54.8,1.083669394,560.0210985,13.940086
54.9,1.050896169,551.6579124,13.775615
55,1.040848903,542.9526169,13.601597
55.1,1.043001889,533.9205383,13.41786
55.2,1.025778005,524.5790725,13.224277
55.3,0.929132875,514.9471931,13.020764
55.4,0.863107985,505.0467152,12.807279
55.5,0.813110876,494.9007972,12.583834
55.6,0.825550348,484.535147,12.35047
55.7,0.837511379,473.9774935,12.107263
55.8,0.834401511,463.2551804,11.85432
55.9,0.842535012,452.3983032,11.591806
56,0.842056571,441.4374773,11.319887
56.1,0.840621247,430.4024278,11.038761
56.2,0.839664365,419.3220517,10.74865
56.3,0.849711631,408.2239561,10.449781
56.4,0.853060719,397.134069,10.142445
56.5,0.862629544,386.0776788,9.826902
56.6,0.858084352,375.0799339,9.503455
56.7,0.848515528,364.162115,9.172414
56.8,0.826746451,353.3445026,8.834092
56.9,0.855452925,342.646116,8.488861
57,0.878896546,332.0836837,8.137072
57.1,0.979129984,321.673052,7.779099
57.2,0.943007671,311.4278042,7.415322
57.3,0.909516785,301.3601848,7.04618
57.4,0.8922929,291.4814581,6.672083
57.5,0.901622504,281.7996835,6.293472
57.6,0.896838092,272.3192538,5.910805
57.7,0.860237338,263.0423547,5.52454
57.8,0.855692146,253.9693166,5.135201
57.9,0.856409808,245.0972175,4.743283
58,0.858562793,236.4210381,4.349313
58.1,0.851146954,227.9355424,3.953835
58.2,0.85329994,219.6369839,3.557394
58.3,0.854496043,211.5239547,3.160599
58.4,0.856409808,203.5952451,2.764023
58.5,0.855692146,195.8520435,2.368263
58.6,0.849233189,188.2987252,1.973904
58.7,0.852343057,180.9421096,1.581576
58.8,0.852103837,173.7908501,1.191848
58.9,0.852343057,166.854626,0.805291
59,0.854496043,160.1437091,0.422447
59.1,0.850907734,153.6684688,0.043811
59.2,0.863825647,147.438339,-0.330121
59.3,0.85736669,141.4625674,-0.698947
59.4,0.849950851,135.7494598,-1.062312
59.5,0.853060719,130.3058495,-1.419937
59.6,0.835597614,125.138004,-1.77157
59.7,0.821962039,120.2488616,-2.117075
59.8,0.807130361,115.6378831,-2.456377
59.9,0.810957891,111.3010474,-2.78948
60,0.811675553,107.2297341,-3.116474
60.1,0.812632435,103.4106451,-3.437482
60.2,0.813110876,99.82707033,-3.75273
60.3,0.802345949,96.46000177,-4.062492
60.4,0.797083095,93.28878633,-4.367088
60.5,0.786796608,90.29163917,-4.666888
60.6,0.787992712,87.44700186,-4.962256
60.7,0.786318167,84.7344058,-5.253609
60.8,0.763831429,82.13476774,-5.541356
60.9,0.722446263,79.63039401,-5.825907
61,0.614557764,77.20572864,-6.107623
61.1,0.577000128,74.84678105,-6.386866
61.2,0.574847142,72.54064062,-6.663951
61.3,0.580349216,70.27763414,-6.939149
61.4,0.566713641,68.04833042,-7.212688
61.5,0.547815212,65.84476231,-7.48471
61.6,0.551403522,63.66242095,-7.755331
61.7,0.549968198,61.49888195,-8.024599
61.8,0.55092508,59.35301239,-8.292509
61.9,0.543748462,57.22420226,-8.559012
62,0.554274169,55.1129606,-8.823983
62.1,0.55068586,53.02324578,-9.087283
62.2,0.545183786,50.95945698,-9.348726
62.3,0.535614961,48.9282672,-9.608112
62.4,0.538007167,46.93854819,-9.865176
62.5,0.542552359,44.99814376,-10.119667
62.6,0.532505093,43.11729461,-10.371305
62.7,0.528199122,41.3070735,-10.619793
62.8,0.527720681,39.57777844,-10.864829
62.9,0.546140668,37.93866869,-11.106068
63,0.563842994,36.39927617,-11.34318
63.1,0.571498053,34.9676769,-11.575804
63.2,0.558819361,33.6494153,-11.803579
63.3,0.560972346,32.44760451,-12.0261
63.4,0.561690008,31.36406716,-12.242973
63.5,0.555948713,30.39634906,-12.453777
63.6,0.557144816,29.53829955,-12.658075
63.7,0.556427155,28.78055154,-12.855422
63.8,0.553078066,28.10596874,-13.045325
63.9,0.615275426,27.495472,-13.227298
64,0.827224893,26.92998212,-13.400829
64.1,1.626700194,26.39041993,-13.56539
64.2,3.049105981,25.85770625,-13.720437
64.3,3.052215849,25.31276191,-13.865402
64.4,3.205317044,24.73650771,-13.999725
64.5,3.211297559,24.1098645,-14.122833
64.6,3.211776,23.41375308,-14.234167
64.7,3.223737031,22.62909428,-14.333157
64.8,3.232109753,21.73680891,-14.419259
64.9,3.255314153,20.71781781,-14.491958
65,3.255314153,0,-14.550763
65.1,3.267275183,0,-14.595231
65.2,3.276126346,0,-14.624962
65.3,3.290240363,0,-14.639626
65.4,3.293350231,0,-14.638964
65.5,3.322774366,0,-14.622803
65.6,3.763897184,0,-14.591057
65.7,3.990199887,0,-14.543747
65.8,4.000725594,0,-14.480994
65.9,3.99905105,0,-14.403033
66,3.999290271,0,-14.310196
66.1,4.003835462,0,-14.202938
66.2,4.01842792,0,-14.081801
66.3,4.153348348,0,-13.947425
66.4,4.217937914,0,-13.800525
66.5,4.783933893,0,-13.641885
66.6,5.124823272,0,-13.472368
66.7,5.813300207,0,-13.292859
66.8,6.08960002,0,-13.104272
66.9,6.453454578,0,-12.907538
67,7.09839336,0,-12.703609
67.1,7.898825544,0,-12.493399
67.2,7.932794872,0,-12.277812
67.3,8.068672182,0,-12.057755
67.4,8.395686765,0,-11.834035
67.5,8.423914798,0,-11.607488
67.6,9.011440632,0,-11.378839
67.7,9.157125988,0,-11.148816
67.8,9.197554272,0,-10.918094
67.9,9.19276986,0,-10.687246
68,9.162388842,0,-10.456869
68.1,8.899006943,0,-10.227429
68.2,8.718873818,0,-9.999407
68.3,9.021727119,0,-9.773228
68.4,9.632935795,0,-9.549223
68.5,9.758526618,0,-9.327749
68.6,10.11783598,0,-9.109055
68.7,10.18577464,0,-8.893402
68.8,10.29390236,0,-8.681016
68.9,10.48360431,0,-8.472038
69,10.53384064,0,-8.26663
69.1,10.53623284,0,-8.064918
69.2,10.56733152,0,-7.866956
69.3,10.78597917,0,-7.672835
69.4,10.79602643,0,-7.482562
69.5,10.79602643,0,-7.296163
69.6,10.58024944,0,-7.113642
69.7,10.58312008,0,-6.93494
69.8,10.84482744,0,-6.760038
69.9,10.98501072,0,-6.588843
70,11.08644026,0,-6.421288
70.1,11.12686855,0,-6.257295
70.2,11.82300054,0,-6.096728
70.3,11.94308929,0,-5.939497
70.4,11.88065271,0,-5.785455
70.5,12.01007106,0,-5.634481
70.6,11.92538696,0,-5.486453
70.7,11.87849972,0,-5.341213
70.8,11.79070576,0,-5.198654
70.9,11.8237182,0,-5.058625
71,11.19408954,0,-4.921021
71.1,11.1854776,0,-4.78575
71.2,11.17543033,0,-4.652699
71.3,10.85750613,0,-4.521805
71.4,10.85296094,0,-4.393021
71.5,10.81755629,0,-4.266286
71.6,10.57809645,0,-4.141597
71.7,10.73598206,0,-4.018924
71.8,11.1854776,0,-3.898279
71.9,11.18906591,0,-3.779688
72,11.19026201,0,-3.663157
72.1,11.23834535,0,-3.548736
72.2,11.05079639,0,-3.436446
72.3,11.32924919,0,-3.326338
72.4,10.86372587,0,-3.218466
72.5,10.74913919,0,-3.112859
72.6,10.84602354,0,-3.009579
72.7,10.72115038,0,-2.90865
72.8,10.49197703,0,-2.810121
72.9,10.48288665,0,-2.714027
73,10.44939576,0,-2.620372
73.1,10.44676433,0,-2.529179
73.2,10.4266698,0,-2.44043
73.3,10.56757074,0,-2.354114
73.4,11.14313555,0,-2.270206
73.5,11.17471267,0,-2.188645
73.6,11.17949708,0,-2.109379
73.7,11.66535415,0,-2.032318
73.8,11.73927333,0,-1.957378
73.9,12.03710299,0,-1.884463
74,12.4062204,0,-1.813448
74.1,13.14517289,0,-1.744222
74.2,12.56386679,0,-1.676671
74.3,13.06312022,0,-1.610663
74.4,13.02819401,0,-1.546095
74.5,12.76050614,0,-1.482849
74.6,12.59831456,0,-1.42084
74.7,12.40478508,0,-1.359997
74.8,12.35335265,0,-1.300253
74.9,12.16747823,0,-1.241579
75,12.23996208,0,-1.183951
75.1,12.45310765,0,-1.127376
75.2,12.59664002,0,-1.071879
75.3,12.69591657,0,-1.01749
75.4,12.81361311,0,-0.964264
75.5,12.70739916,0,-0.912248
75.6,12.90690916,0,-0.861503
75.7,13.62122192,0,-0.812088
75.8,13.4064018,0,-0.764041
75.9,13.45903034,0,-0.717407
76,13.56500507,0,-0.672199
76.1,13.61428452,0,-0.628425
76.2,13.42649633,0,-0.586072
76.3,13.30210161,0,-0.545098
76.4,13.21239388,0,-0.50545
76.5,12.9561886,0,-0.467054
76.6,13.05139841,0,-0.42981
76.7,13.59155856,0,-0.393612
76.8,13.65949722,0,-0.358328
76.9,13.75925221,0,-0.323819
77,13.90350224,0,-0.28994
77.1,14.8776086,0,-0.256526
77.2,14.93717453,0,-0.223422
77.3,15.8488443,0,-0.190462
77.4,16.70501489,0,-0.157488
77.5,17.83820295,0,-0.124352
77.6,17.82217517,0,-0.090907
77.7,17.36550301,0,-0.05703
77.8,17.11910577,0,-0.022604
77.9,16.8966306,0,0.01246
78,16.16509396,0,0.048228
78.1,16.12514411,0,0.084755
78.2,15.87659389,0,0.122061
78.3,15.59598811,0,0.160153
78.4,15.59550967,0,0.199008
78.5,15.5993372,0,0.238581
78.6,15.6713426,0,0.278818
78.7,15.84023236,0,0.319637
78.8,15.85243261,0,0.360956
78.9,15.80889446,0,0.402676
79,15.97539201,0,0.444693
79.1,15.95816812,0,0.486913
79.2,16.31508528,0,0.52923
79.3,16.28733569,0,0.571544
79.4,16.26532739,0,0.613768
79.5,16.28996712,0,0.655805
79.6,15.9868746,0,0.697578
79.7,15.47589936,0,0.739
79.8,15.43882016,0,0.779983
79.9,15.33547686,0,0.820449
80,15.31131557,0,0.860299
80.1,15.40078408,0,0.899446
80.2,15.42327082,0,0.937785
80.3,15.53402997,0,0.975204
80.4,15.53474763,0,1.011597
80.5,15.49479779,0,1.046835
80.6,15.27256183,0,1.080803
80.7,14.93119401,0,1.113371
80.8,15.0342981,0,1.144417
80.9,15.28332676,0,1.173829
81,14.4587333,0,1.201493
81.1,14.38553179,0,1.227315
81.2,14.27836095,0,1.251204
81.3,12.90954058,0,1.273082
81.4,11.6287534,0,1.29289
81.5,10.14558558,0,1.310577
81.6,10.63216031,0,1.3261
81.7,10.9615671,0,1.339433
81.8,11.01993693,0,1.350549
81.9,11.17327735,0,1.359431
82,11.20461525,0,1.366064
82.1,11.21322719,0,1.370434
82.2,11.21729394,0,1.372532
82.3,11.21777238,0,1.372346
82.4,11.21705472,0,1.369871
82.5,11.17806176,0,1.365101
82.6,11.24456509,0,1.358032
82.7,11.36919903,0,1.348668
82.8,11.88113115,0,1.337018
82.9,11.86725635,0,1.323094
83,11.45914598,0,1.306918
83.1,10.98070475,0,1.288518
83.2,10.77449658,0,1.267923
83.3,10.61732863,0,1.245176
83.4,10.39963787,0,1.220322
83.5,10.26280368,0,1.193411
83.6,10.0704703,0,1.164505
83.7,10.06592511,0,1.133661
83.8,10.06281524,0,1.100951
83.9,10.06305446,0,1.066452
84,10.20299852,0,1.03024
84.1,10.28194133,0,0.992412
84.2,10.33313454,0,0.953058
84.3,10.32811091,0,0.912284
84.4,10.91731129,0,0.870205
84.5,11.41369407,0,0.826929
84.6,11.45747144,0,0.782585
84.7,11.65937364,0,0.737287
84.8,11.28260117,0,0.691162
84.9,11.0393138,0,0.644334
85,10.79148124,0,0.596909
85.1,10.39341814,0,0.549001
85.2,10.17788036,0,0.500696
85.3,10.33074233,0,0.452078
85.4,10.30801638,0,0.403222
85.5,10.27787458,0,0.354172
85.6,9.356157541,0,0.304976
85.7,9.304725109,0,0.255654
85.8,9.191095316,0,0.206229
85.9,8.993020645,0,0.15672
86,8.99110688,0,0.107133
86.1,9.071963448,0,0.057494
86.2,9.543945725,0,0.007818
86.3,11.12423712,0,-0.041853
86.4,11.62971028,0,-0.091465
86.5,11.59502329,0,-0.140956
86.6,11.17566955,0,-0.19024
86.7,10.56111179,0,-0.239209
86.8,10.49245547,0,-0.287748
86.9,10.50298118,0,-0.335712
87,10.37523737,0,-0.38296
87.1,10.40681449,0,-0.429327
87.2,10.42475604,0,-0.47465
87.3,10.51422455,0,-0.518773
87.4,10.85056873,0,-0.561532
87.5,11.8074512,0,-0.602788
87.6,12.01581236,0,-0.642409
87.7,12.04284429,0,-0.680281
87.8,12.08638244,0,-0.71633
87.9,12.00432977,0,-0.750497
88,11.72013568,0,-0.782765
88.1,11.62133756,0,-0.813144
88.2,11.5452654,0,-0.84168
88.3,11.06730261,0,-0.868462
88.4,10.84458822,0,-0.893601
88.5,10.37715113,0,-0.917254
88.6,10.26232524,0,-0.939595
88.7,10.11663988,0,-0.96082
88.8,10.48408275,0,-0.981147
88.9,10.51446377,0,-1.00079
89,10.5182913,0,-1.019965
89.1,10.6111089,0,-1.03888
89.2,10.81755629,0,-1.057719
89.3,11.72372398,0,-1.076642
89.4,12.04045208,0,-1.095775
89.5,12.21914988,0,-1.115208
89.6,12.2495309,0,-1.134997
89.7,12.43731908,0,-1.15515
89.8,12.87987723,0,-1.175647
89.9,12.96073379,0,-1.196423
90,12.99374624,0,-1.217379
90.1,13.13129809,0,-1.238391
90.2,12.54472914,0,-1.259304
90.3,13.5977783,0,-1.279948
90.4,13.86761915,0,-1.30013
90.5,13.8611602,0,-1.319654
90.6,13.85900721,0,-1.338317
90.7,13.85685422,0,-1.355913
90.8,13.86881526,0,-1.372241
90.9,13.85613656,0,-1.387109
91,13.94393053,0,-1.400331
91.1,14.46973744,0,-1.411744
91.2,14.46878056,0,-1.421196
91.3,14.30419678,0,-1.428557
91.4,14.09152965,0,-1.433719
91.5,13.28846604,0,-1.436596
91.6,13.30808213,0,-1.437129
91.7,13.4365436,0,-1.435285
91.8,13.58031519,0,-1.431063
91.9,13.6128492,0,-1.424487
92,13.81618672,0,-1.415614
92.1,13.85589734,0,-1.404526
92.2,15.30940181,0,-1.391338
92.3,15.61512576,0,-1.376192
92.4,15.92491646,0,-1.359256
92.5,16.03136963,0,-1.340728
92.6,16.07131947,0,-1.320818
92.7,16.01486341,0,-1.299761
92.8,16.34092111,0,-1.277805
92.9,16.69616372,0,-1.255201
93,16.99016586,0,-1.232206
93.1,16.90165423,0,-1.209073
93.2,16.10026517,0,-1.186045
93.3,16.00601225,0,-1.163348
93.4,15.75794047,0,-1.14118
93.5,15.93568138,0,-1.119719
93.6,16.00122783,0,-1.099098
93.7,15.72923399,0,-1.079418
93.8,15.63139276,0,-1.060742
93.9,15.60436083,0,-1.043078
94,15.58881149,0,-1.026399
94.1,15.28165222,0,-1.010634
94.2,13.80996698,0,-0.99567
94.3,13.18296975,0,-0.981364
94.4,13.35736158,0,-0.967542
94.5,13.40448804,0,-0.954008
94.6,13.39659376,0,-0.940547
94.7,13.47529734,0,-0.926933
94.8,13.54514976,0,-0.912945
94.9,13.95565234,0,-0.898359
95,14.08507069,0,-0.882964
95.1,14.6467607,0,-0.866574
95.2,14.6757064,0,-0.849013
95.3,14.65680797,0,-0.830138
95.4,14.65298044,0,-0.809825
95.5,14.65776485,0,-0.787982
95.6,14.50370677,0,-0.764539
95.7,14.33266403,0,-0.739441
95.8,14.26161551,0,-0.712659
95.9,14.18482569,0,-0.684164
96,14.02765774,0,-0.65394
96.1,13.48821525,0,-0.621975
96.2,12.30622619,0,-0.588242
96.3,12.23637377,0,-0.552717
96.4,12.07705284,0,-0.51537
96.5,12.37512172,0,-0.476146
96.6,12.38134146,0,-0.434993
96.7,12.34067396,0,-0.391838
96.8,11.89931192,0,-0.346607
96.9,12.15647408,0,-0.299223
97,12.26388414,0,-0.249597
97.1,12.28971996,0,-0.197665
97.2,12.26436258,0,-0.143354
97.3,12.30096333,0,-0.086621
97.4,12.18207069,0,-0.027451
97.5,12.19044341,0,0.034157
97.6,12.21604001,0,0.098149
97.7,12.62630337,0,0.164442
97.8,12.60955793,0,0.232898
97.9,12.46291569,0,0.303326
98,12.46004504,0,0.375498
98.1,12.43038169,0,0.449109
98.2,12.34378382,0,0.523817
98.3,12.13494423,0,0.599207
98.4,12.00983184,0,0.6748
98.5,12.0093534,0,0.750084
98.6,11.98327835,0,0.824459
98.7,11.86414649,0,0.8973
98.8,11.56105397,0,0.967907
98.9,11.30030349,0,1.035538
99,9.668101225,0,1.099422
99.1,9.884835104,0,1.158738
99.2,9.959711157,0,1.212645
99.3,10.66517276,0,1.260301
99.4,10.7144522,0,1.300847
99.5,10.84363134,0,1.333457
99.6,10.94242945,0,1.357327
99.7,11.27303234,0,1.371704
99.8,11.53378282,0,1.375913
99.9,11.69382141,0,1.369367
100,11.71056685,0,1.351586
0,19.53164569,36.79277384,-0.295738
0.1,19.42471408,43.91635484,-0.419142
0.2,19.38883099,51.30786832,-0.557329
0.3,19.35462244,58.8871328,-0.709591
0.4,19.27496197,66.54056541,-0.874852
0.5,19.270656,74.12908081,-1.051676
0.6,19.06588315,81.50364577,-1.238306
0.7,19.03932967,88.52473294,-1.43272
0.8,19.34912036,95.0765293,-1.632689
0.9,19.9447797,101.0784509,-1.835857
1,19.98329422,106.4845378,-2.039825
1.1,20.01271835,111.2827408,-2.242226
1.2,20.33973294,115.4900461,-2.440802
1.3,22.36712766,119.1433899,-2.633477
1.4,22.92068417,122.2951081,-2.81841
1.5,22.482432,125.0053609,-2.994035
1.6,19.55365399,127.3363995,-3.159093
1.7,17.78509597,129.3504288,-3.312649
1.8,16.19547497,131.1052971,-3.454082
1.9,15.87468013,132.6528793,-3.583085
2,16.05289949,134.0352473,-3.699635
2.1,16.00338082,135.2884481,-3.803967
2.2,16.10911633,136.4437176,-3.896532
2.3,16.12251269,137.5323099,-3.977968
2.4,16.12777554,138.5890502,-4.049043
2.5,16.14978384,139.6546155,-4.110615
2.6,16.026346,140.7748206,-4.163598
2.7,15.91128088,141.9984379,-4.208908
2.8,16.51028931,143.3758671,-4.247433
2.9,16.49737139,144.9533319,-4.279994
3,15.86750351,146.7720469,-4.307329
3.1,16.14954462,148.8668458,-4.330059
3.2,16.59449496,151.2649045,-4.348686
3.3,18.67045147,153.9836316,-4.363589
3.4,18.88359704,157.0294106,-4.375024
3.5,18.93837857,160.3969779,-4.383134
3.6,18.99507385,164.0690927,-4.387966
3.7,19.2149176,168.0203208,-4.389488
3.8,19.67852715,172.2171936,-4.387603
3.9,19.68857442,176.6192388,-4.382169
4,18.83981967,181.1823787,-4.373022
4.1,18.873789,185.8617799,-4.359975
4.2,19.14865349,190.614488,-4.342838
4.3,18.94507674,195.4047573,-4.321426
4.4,17.59563324,200.2031857,-4.295554
4.5,15.93209307,204.9871948,-4.265046
4.6,16.03950313,209.7416297,-4.229745
4.7,16.24858195,214.4537703,-4.189505
4.8,16.56459239,219.1140964,-4.144194
4.9,16.51196385,223.7174554,-4.093706
5,16.2827905,228.2599489,-4.037945
5.1,15.9115201,232.7434425,-3.976837
5.2,15.80554537,237.1764334,-3.910323
5.3,15.70818258,241.5707001,-3.838351
5.4,15.9579289,245.9436181,-3.760871
5.5,16.43637013,250.3172813,-3.677825
5.6,17.43463777,254.7142195,-3.589143
5.7,17.42937491,259.1577425,-3.494732
5.8,17.25593997,263.6698974,-3.394476
5.9,16.95069446,268.2701835,-3.28823
6,16.50167736,272.9784196,-3.175828
6.1,16.49808905,277.8095769,-3.057086
6.2,16.37536888,282.7757366,-2.931802
6.3,15.57086994,287.8862765,-2.799788
6.4,12.84208037,293.148308,-2.660868
6.5,12.53300733,298.573161,-2.514901
6.6,12.33493266,304.1694093,-2.361797
6.7,12.22608728,309.9453837,-2.201532
6.8,12.08853543,315.9091733,-2.034163
6.9,11.26035365,322.0674042,-1.859836
7,11.02615667,328.4252243,-1.678795
7.1,10.99936396,334.9909206,-1.491379
7.2,10.93190374,341.7722035,-1.298031
7.3,10.30036132,348.7783155,-1.099275
7.4,10.21256735,356.0213696,-0.895715
7.5,10.05898771,363.5143393,-0.688021
7.6,9.873352514,371.2702359,-0.476905
7.7,9.193248301,379.3001254,-0.263114
7.8,8.893744089,387.6108949,-0.047401
7.9,8.003125733,396.2013137,0.169478
8,7.943320579,405.0639732,0.386795
8.1,7.958152257,414.1874518,0.603862
8.2,8.138285381,423.5552386,0.820039
8.3,8.63442894,433.1443381,1.034753
8.4,8.761215867,442.9259471,1.24751
8.5,8.475586451,452.8643124,1.457896
8.6,7.798352885,462.9146917,1.665588
8.7,4.477013842,473.0223497,1.870351
8.8,4.043067643,483.1269008,2.072038
8.9,4.026561421,493.1592682,2.270589
9,3.944030308,503.0499206,2.466012
9.1,3.918433702,512.7309975,2.658386
9.2,3.918672923,522.1410669,2.847831
9.3,3.921065129,531.226815,3.034504
9.4,3.924892659,539.9466064,3.218587
9.5,3.942834205,548.2673476,3.400257
9.6,3.943312646,556.1634774,3.579683
9.7,3.942355764,563.6170462,3.757021
9.8,3.940681219,570.6150323,3.932385
9.9,3.944030308,577.1512522,4.10586
10,3.946183294,583.224213,4.277482
10.1,3.955752118,588.8397365,4.447245
10.2,3.954556015,594.0076831,4.615097
10.3,3.958622766,598.7438966,4.780942
10.4,3.965320943,603.0676813,4.94465
10.5,3.989960667,607.00213,5.10605
10.6,4.752356772,610.5742092,5.264946
10.7,4.984639991,613.8097928,5.421131
10.8,5.887697819,616.7335522,5.574379
10.9,6.837642888,619.3698645,5.724468
11,7.094087389,621.7403014,5.871189
11.1,7.943320579,623.8626252,6.014338
11.2,7.983270422,625.7513717,6.153741
11.3,7.919159296,627.4202341,6.289248
11.4,7.474208949,628.881723,6.420735
11.5,7.135711777,630.1513915,6.548103
11.6,7.130448923,631.2483824,6.671275
11.7,7.118248672,632.1948598,6.790195
11.8,7.09839336,633.0147773,6.904817
11.9,7.121119319,633.7313586,7.015098
12,8.072499712,634.36837,7.121004
12.1,8.572710021,634.9470976,7.222495
12.2,8.689449682,635.4862698,7.319524
12.3,8.704759802,635.9997076,7.412049
12.4,8.737054585,636.4974561,7.50002
12.5,8.749015616,636.9855277,7.583394
12.6,8.74686263,637.4730971,7.662138
12.7,8.742317439,637.9645187,7.736237
12.8,8.741599777,638.4650373,7.805697
12.9,8.741360556,638.975414,7.870559
13,8.827479978,639.4908977,7.930903
13.1,9.021487898,640.0017412,7.986848
13.2,9.123874322,640.4913116,8.038566
13.3,9.12674497,640.9405865,8.086271
13.4,9.140858986,641.3301982,8.130231
13.5,9.14636106,641.6428351,8.170749
13.6,9.134400029,641.8626844,8.208166
13.7,8.851880481,641.9786408,8.242851
13.8,8.710979538,641.9836237,8.27519
13.9,8.559074446,641.8741913,8.305571
14,7.478036479,641.6524089,8.334382
14.1,8.465060744,641.322687,8.361987
14.2,10.35059764,640.8967244,8.388721
14.3,10.27835302,640.3889105,8.414881
14.4,10.89697753,639.8152652,8.440713
14.5,11.986149,639.1931652,8.466414
14.6,12.10886918,638.5388039,8.492123
14.7,12.1091084,637.8702227,8.517931
14.8,12.118438,637.2030531,8.54387
14.9,12.1311167,636.5539555,8.569938
15,12.14020708,635.9408405,8.596095
15.1,11.90816308,635.3812394,8.622271
15.2,11.87467219,634.8914703,8.64838
15.3,12.08973153,634.4839711,8.674335
15.4,13.05115919,634.1643914,8.700044
15.5,25.08634842,633.9349297,8.725425
15.6,29.4095434,633.7936586,8.750417
15.7,29.63871675,633.7355804,8.774973
15.8,29.66335648,633.7555623,8.799071
15.9,29.74660525,633.8473384,8.822711
16,29.80425742,634.0059892,8.845913
16.1,29.85257998,634.227563,8.86872
16.2,29.90066333,634.5045651,8.891193
16.3,30.69559344,634.8269949,8.913405
16.4,31.637405,635.1801131,8.935435
16.5,32.04360161,635.5481337,8.957376
16.6,34.53604122,635.9140817,8.979318
16.7,34.61378792,636.259393,9.001359
16.8,34.64680036,636.566148,9.023596
16.9,34.72741771,636.8180057,9.046134
17,34.77526183,637.0019591,9.069086
17.1,34.7865052,637.1125213,9.092579
17.2,34.64703958,637.1448663,9.116762
17.3,34.45709841,637.0981912,9.141808
17.4,33.8372778,636.9726105,9.167913
17.5,33.65953688,636.7690916,9.195316
17.6,33.44639131,636.4901111,9.224279
17.7,33.15167151,636.1366363,9.255094
17.8,33.15119307,635.7082191,9.288071
17.9,33.15047541,635.2058004,9.323537
18,33.14545177,634.6309552,9.361817
18.1,33.14066736,633.9849039,9.403228
18.2,33.13588295,633.2706779,9.448051
18.3,33.07847,632.4931363,9.496538
18.4,32.89355246,631.6583261,9.548877
18.5,32.71652921,630.7771697,9.605198
18.6,29.56144849,629.8694333,9.665551
18.7,19.46083639,628.9621873,9.729906
18.8,18.53648793,628.0911752,9.798144
18.9,18.45682746,627.3017728,9.870063
19,18.37070804,626.6484954,9.945368
19.1,18.25277228,626.1929359,10.023685
19.2,18.16043312,626.0017923,10.104567
19.3,18.0893846,626.1435194,10.18749
19.4,17.90733771,626.6801705,10.271875
19.5,15.62732601,627.6615775,10.357091
19.6,14.19463374,629.115109,10.44246
19.7,12.66362179,631.0366219,10.527287
19.8,3.982305607,633.3900546,10.610856
19.9,3.837577134,636.1091558,10.692458
20,3.230674429,639.1039825,10.771405
20.1,2.338142308,642.2719824,10.847042
20.2,1.846065499,645.5093102,10.918781
20.3,1.75707543,648.7223872,10.9861
20.4,1.74559284,651.8349394,11.048556
20.5,1.708752865,654.7908892,11.105806
20.6,1.642249534,657.5525281,11.157596
20.7,1.559957642,660.0960397,11.203763
20.8,1.521443122,662.4101158,11.244246
20.9,1.499195605,664.4887633,11.279063
21,1.541537654,666.3257254,11.308315
21.1,1.820229673,667.9166489,11.332179
21.2,2.868972856,669.2548545,11.350896
21.3,3.559841998,670.3343019,11.364767
21.4,3.70050372,671.1468483,11.374146
21.5,3.844992973,671.6848128,11.379429
21.6,3.858389327,671.9413894,11.381049
21.7,3.858867769,671.9106039,11.379468
21.8,3.85958543,671.5924652,11.375172
21.9,3.850495047,670.9922334,11.368656
22,3.850255826,670.120992,11.360428
22.1,3.838773237,668.9969329,11.351002
22.2,3.83231428,667.644029,11.340879
22.3,3.829443633,666.0927354,11.330557
22.4,3.813655072,664.3801008,11.320511
22.5,3.794995864,662.5477104,11.311196
22.6,3.760787316,660.6389259,11.303028
22.7,3.752175373,658.700406,11.296382
22.8,3.710790207,656.7767876,11.291584
22.9,3.715574619,654.9128228,11.2889
23,3.73901824,653.1474972,11.28853
23.1,3.727296429,651.5101075,11.290604
23.2,3.730884739,650.0202227,11.295174
23.3,3.728253312,648.6895775,11.302217
23.4,3.729688636,647.5201262,11.311643
23.5,3.732798504,646.5072209,11.323288
23.6,3.73519071,645.6420651,11.336945
23.7,3.73542993,644.9106935,11.352359
23.8,3.735669151,644.2972357,11.369266
23.9,3.73542993,643.786406,11.387393
24,3.740692784,643.3654309,11.406483
24.1,3.747390961,643.0244398,11.426305
24.2,3.798823394,642.7569227,11.446668
24.3,4.2200909,642.5575892,11.467426
24.4,3.990199887,642.4219849,11.488482
24.5,3.497166196,642.3463642,11.509785
24.6,3.204360161,642.3232304,11.531322
24.7,3.179959658,642.3471353,11.553128
24.8,3.165367201,642.4112076,11.575262
24.9,3.166563304,642.5086613,11.597806
25,3.169433951,642.6303237,11.620862
25.1,3.173261481,642.7649312,11.644528
25.2,3.172543819,642.9002505,11.66891
25.3,3.175175246,643.0217433,11.694099
25.4,3.17278304,643.1152773,11.720179
25.5,3.175175246,643.1674145,11.747219
25.6,3.177089011,643.1650485,11.775273
25.7,3.185222512,643.1004456,11.804384
25.8,3.18067732,642.9701371,11.834584
25.9,3.16106123,642.7755298,11.865892
26,3.164171098,642.524603,11.898321
26.1,3.139770595,642.229183,11.931884
26.2,3.115130871,641.9054836,11.966587
26.3,3.104365943,641.5724005,12.002433
26.4,3.107236591,641.2502287,12.039423
26.5,3.10675815,640.9615672,12.077552
26.6,3.108671914,640.7282887,12.116803
26.7,3.106518929,640.5716254,12.157149
26.8,3.106279708,640.5105574,12.198541
26.9,3.104126723,640.56437,12.240902
27,3.103648282,640.7477644,12.284128
27.1,3.084510632,641.0740655,12.328085
27.2,3.101973737,641.5498489,12.372595
27.3,3.091926471,642.1742933,12.417455
27.4,2.883565314,642.9383977,12.462434
27.5,1.054006037,643.8273766,12.507276
27.6,1.016687621,644.8198468,12.55172
27.7,1.027213328,645.8942875,12.595498
27.8,1.017883724,647.0251337,12.638364
27.9,1.0083149,648.1843383,12.680079
28,1.010707106,649.343717,12.720439
28.1,1.037021374,650.4738563,12.759281
28.2,1.067641612,651.5455507,12.796481
28.3,1.122423134,652.5325137,12.831969
28.4,1.129838973,653.4126728,12.865726
28.5,1.133905723,654.1679939,12.897783
28.6,1.142039224,654.7855478,12.928223
28.7,1.181271405,655.2574462,12.957181
28.8,1.222417352,655.5785049,12.984833
28.9,1.2334215,655.7467371,13.011391
29,1.251123826,655.7601524,13.037095
29.1,1.246817854,655.6222559,13.062205
29.2,1.247535516,655.3429404,13.08699
29.3,1.246339413,654.9379347,13.111713
29.4,1.293226654,654.4279311,13.136628
29.5,1.362600633,653.8346356,13.161966
29.6,1.358294662,653.1814927,13.187931
29.7,1.359969206,652.4910608,13.21469
29.8,1.381977503,651.781742,13.242372
29.9,1.375996987,651.0719039,13.271062
30,1.370973355,650.3787739,13.300804
30.1,1.374322443,649.7171686,13.3316
30.2,1.36547128,649.1019429,13.36341
30.3,1.364753618,648.5459561,13.39616
30.4,1.31882326,648.0596988,13.429737
30.5,1.318105598,647.6523455,13.464007
30.6,1.279351858,647.3283136,13.498814
30.7,1.347051293,647.0865041,13.533969
30.8,1.389632563,646.9227371,13.569277
30.9,1.355184794,646.831149,13.604526
31,1.349443499,646.8045821,13.639483
31.1,1.357098559,646.8340232,13.673909
31.2,1.375279326,646.9116727,13.707542
31.3,1.338678571,647.0285017,13.740117
31.4,1.295858081,647.1779469,13.771358
31.5,1.323368452,647.3508679,13.80098
31.6,1.347290513,647.5411717,13.828709
31.7,1.347768955,647.7404821,13.854278
31.8,1.315234951,647.9423999,13.877448
31.9,1.298728728,648.1395573,13.898014
32,1.228397867,648.3235714,13.915824
32.1,1.234856824,648.4828802,13.930775
32.2,1.230311632,648.6058376,13.942851
32.3,1.234856824,648.6802809,13.952117
32.4,1.235574485,648.6918468,13.958725
32.5,1.220982028,648.627908,13.962928
32.6,1.143474548,648.4774376,13.965075
32.7,1.113571971,648.2311528,13.965601
32.8,1.107352235,647.8827494,13.965022
32.9,1.098261851,647.4279148,13.963915
33,1.076971217,646.8683417,13.962894
33.1,1.079841864,646.2086139,13.962585
33.2,1.087018482,645.4592753,13.963597
33.3,1.115964177,644.6396702,13.966493
33.4,1.194428539,643.778184,13.971761
33.5,1.213566189,642.9095415,13.979795
33.6,1.248253178,642.0726607,13.990889
33.7,1.239880457,641.3102605,14.005207
33.8,1.218589822,640.6615991,14.022801
33.9,1.159263109,640.162923,14.043603
34,1.143474548,639.8439427,14.06744
34.1,1.154239476,639.7255764,14.094037
34.2,1.156870903,639.8186325,14.123049
34.3,1.131035076,640.1252247,14.154053
34.4,1.135819488,640.6436418,14.186589
34.5,1.137972474,641.3670765,14.220169
34.6,1.115007295,642.2818376,14.254286
34.7,1.123380016,643.3668598,14.288449
34.8,1.106156132,644.5904377,14.322183
34.9,1.126489884,645.9108263,14.355048
35,1.133905723,647.276944,14.386654
35.1,1.151129608,648.6290538,14.416656
35.2,1.129121311,649.9071203,14.444778
35.3,1.122662354,651.0579815,14.470802
35.4,1.120270148,652.0401575,14.494573
35.5,1.1324704,652.8278619,14.516006
35.6,1.1638083,653.4130296,14.535066
35.7,1.158545447,653.8017641,14.551778
35.8,1.143713769,654.008351,14.566216
35.9,1.140843121,654.053878,14.578492
36,1.143713769,653.9622777,14.588747
36.1,1.141321562,653.7577672,14.597148
36.2,1.14801974,653.4637645,14.603875
36.3,1.143952989,653.1021115,14.609119
36.4,1.118356383,652.6932813,14.613068
36.5,1.065727848,652.2549381,14.615909
36.6,1.049221625,651.8005246,14.617822
36.7,1.006161914,651.3391641,14.618979
36.8,1.01238165,650.877485,14.619554
36.9,1.020754372,650.421126,14.61971
37,1.003530487,649.975393,14.619613
37.1,0.971474925,649.5463114,14.619436
37.2,0.968843498,649.1360302,14.619354
37.3,1.01620918,648.7408566,14.619555
37.4,1.059268891,648.3529201,14.620237
37.5,1.048025522,647.95831,14.621615
37.6,1.033193844,647.5384125,14.623914
37.7,1.022189695,647.0730302,14.627369
37.8,0.975302454,646.5429575,14.632223
37.9,0.982718294,645.9315095,14.638731
38,0.978412322,645.226028,14.647143
38.1,0.967408174,644.4192038,14.657712
38.2,0.974584793,643.5084724,14.670684
38.3,0.976737778,642.49734,14.686294
38.4,1.014056194,641.3979754,14.704762
38.5,1.041088124,640.2291439,14.726292
38.6,1.04730786,639.0162956,14.75105
38.7,1.010707106,637.7881421,14.779181
38.8,1.05496292,636.5756027,14.810792
38.9,1.092998998,635.4117218,14.845957
39,1.110940544,634.3283822,14.884711
39.1,1.153521814,633.3556039,14.927057
39.2,1.176486993,632.5181809,14.972978
39.3,1.204715026,631.8391127,15.022422
39.4,1.269304592,631.3364087,15.075331
39.5,1.302556258,631.0217475,15.131634
39.6,1.306144567,630.9020522,15.191257
39.7,1.284375491,630.976536,15.254125
39.8,1.367385045,631.2411015,15.320173
39.9,1.509960533,631.6826662,15.389337
40,1.631484606,632.2854921,15.461551
40.1,1.676697303,633.0288119,15.536753
40.2,1.702293909,633.8916117,15.614871
40.3,2.023806418,634.8528245,15.695826
40.4,2.096290264,635.8882888,15.77951
40.5,2.285992214,636.9768592,15.865792
40.6,2.657262611,638.0989156,15.954507
40.7,2.718024647,639.2348485,16.045452
40.8,2.809167702,640.3690602,16.138386
40.9,3.311291777,641.489264,16.233017
41,3.723947341,642.588309,16.329025
41.1,3.880636845,643.6642666,16.426058
41.2,4.035412584,644.7151434,16.523731
41.3,4.06507594,645.7385715,16.621668
41.4,4.200235589,646.7285725,16.719492
41.5,4.288507996,647.6778187,16.816849
41.6,4.49926136,648.572257,16.913427
41.7,4.528685495,649.3961375,17.008976
41.8,4.55356444,650.1292497,17.103298
41.9,4.629397375,650.7474387,17.196281
42,4.650209569,651.2277421,17.287872
